deLay,freq,condition,trials.thisRepN,trials.thisTrialN,trials.thisN,trials.thisIndex,polygon.started,polygon.stopped,polygon_2.started,key_resp.started,key_resp.keys,key_resp.rt,sound_1.started,sound_1.stopped,text.started,textbox.started,button.started,textbox.text,button.numClicks,button.timesOn,button.timesOff,participant,session,date,expName,psychopyVersion,frameRate
0.7,400,unexp,0,0,0,2,13.8685972,14.8686809,14.8686809,14.8686809,space,0.6229084,16.21864382,16.7075378,16.7075378,16.7075378,16.7075378,250,1,[6.817182699975092],[6.817192699993029],nahiiiii,1,2023-11-09_01h15.50.436,ISB,2022.2.5,60.08033944
0.4,1000,exp,0,1,1,4,23.518401,24.5186553,24.5186553,24.5186553,space,3.1176091,28.06900152,28.5571586,28.5571586,28.5571586,28.5571586,400,2,"[6.817182699975092, 3.143667899945285]","[6.817192699993029, 3.143675400002394]",nahiiiii,1,2023-11-09_01h15.50.436,ISB,2022.2.5,60.08033944
0.7,1000,exp,0,2,2,11,31.7021294,32.7024387,32.7024387,32.7024387,space,0.9344737,34.36946662,34.8474116,34.8474116,34.8474116,34.8474116,600,3,"[6.817182699975092, 3.143667899945285, 4.750760700029787]","[6.817192699993029, 3.143675400002394, 4.750766200013459]",nahiiiii,1,2023-11-09_01h15.50.436,ISB,2022.2.5,60.08033944
0.7,1000,exp,0,3,3,8,39.6020385,40.6021789,40.6021789,40.6021789,space,2.6437741,43.96875852,,44.4564068,44.4564068,44.4564068,700,4,"[6.817182699975092, 3.143667899945285, 4.750760700029787, 3.577181999979075]","[6.817192699993029, 3.143675400002394, 4.750766200013459, 3.577191499993205]",nahiiiii,1,2023-11-09_01h15.50.436,ISB,2022.2.5,60.08033944
0.4,1000,exp,0,4,4,7,48.0354066,49.0354018,49.0354018,49.0354018,space,1.1017276,50.56897232,,51.0602877,51.0602877,51.0602877,400,5,"[6.817182699975092, 3.143667899945285, 4.750760700029787, 3.577181999979075, 3.723223099950701]","[6.817192699993029, 3.143675400002394, 4.750766200013459, 3.577191499993205, 3.7232301999465562]",nahiiiii,1,2023-11-09_01h15.50.436,ISB,2022.2.5,60.08033944
0.1,1000,exp,0,5,5,3,54.7851844,55.7855429,55.7855429,55.7855429,space,0.4593962,56.36829722,,56.8573079,56.8573079,56.8573079,300,6,"[6.817182699975092, 3.143667899945285, 4.750760700029787, 3.577181999979075, 3.723223099950701, 3.3756445999606512]","[6.817192699993029, 3.143675400002394, 4.750766200013459, 3.577191499993205, 3.7232301999465562, 3.3756495999987237]",nahiiiii,1,2023-11-09_01h15.50.436,ISB,2022.2.5,60.08033944
0.7,1000,exp,0,6,6,5,60.2351519,61.2352936,61.2352936,61.2352936,space,1.4256713,63.38540902,63.8635306,63.8635306,63.8635306,63.8635306,500,7,"[6.817182699975092, 3.143667899945285, 4.750760700029787, 3.577181999979075, 3.723223099950701, 3.3756445999606512, 2.45114520000061]","[6.817192699993029, 3.143675400002394, 4.750766200013459, 3.577191499993205, 3.7232301999465562, 3.3756495999987237, 2.4511495000333525]",nahiiiii,1,2023-11-09_01h15.50.436,ISB,2022.2.5,60.08033944
0.1,1000,exp,0,7,7,9,66.3186526,67.3187194,67.3187194,67.3187194,space,2.0002642,69.43501292,,69.9033055,69.9033055,69.9033055,200,8,"[6.817182699975092, 3.143667899945285, 4.750760700029787, 3.577181999979075, 3.723223099950701, 3.3756445999606512, 2.45114520000061, 2.0237693000235595]","[6.817192699993029, 3.143675400002394, 4.750766200013459, 3.577191499993205, 3.7232301999465562, 3.3756495999987237, 2.4511495000333525, 2.0237775000277907]",nahiiiii,1,2023-11-09_01h15.50.436,ISB,2022.2.5,60.08033944
0.4,1000,exp,0,8,8,10,71.9352833,72.9356202,72.9356202,72.9356202,space,2.468016,75.83543082,76.3174616,76.3174616,76.3174616,76.3174616,400,9,"[6.817182699975092, 3.143667899945285, 4.750760700029787, 3.577181999979075, 3.723223099950701, 3.3756445999606512, 2.45114520000061, 2.0237693000235595, 2.9152677999809384]","[6.817192699993029, 3.143675400002394, 4.750766200013459, 3.577191499993205, 3.7232301999465562, 3.3756495999987237, 2.4511495000333525, 2.0237775000277907, 2.915276499988977]",nahiiiii,1,2023-11-09_01h15.50.436,ISB,2022.2.5,60.08033944
0.1,1000,exp,0,9,9,6,79.235362,80.2354127,80.2354127,80.2354127,space,1.1055425,81.46880322,,81.948597,81.948597,81.948597,300,10,"[6.817182699975092, 3.143667899945285, 4.750760700029787, 3.577181999979075, 3.723223099950701, 3.3756445999606512, 2.45114520000061, 2.0237693000235595, 2.9152677999809384, 2.8180047999485396]","[6.817192699993029, 3.143675400002394, 4.750766200013459, 3.577191499993205, 3.7232301999465562, 3.3756495999987237, 2.4511495000333525, 2.0237775000277907, 2.915276499988977, 2.818012599949725]",nahiiiii,1,2023-11-09_01h15.50.436,ISB,2022.2.5,60.08033944
0.1,400,unexp,0,10,10,0,84.7689367,85.7686269,85.7686269,85.7686269,space,0.8563505,86.75205872,87.2388388,87.2388388,87.2388388,87.2388388,600,11,"[6.817182699975092, 3.143667899945285, 4.750760700029787, 3.577181999979075, 3.723223099950701, 3.3756445999606512, 2.45114520000061, 2.0237693000235595, 2.9152677999809384, 2.8180047999485396, 5.929074199986644]","[6.817192699993029, 3.143675400002394, 4.750766200013459, 3.577191499993205, 3.7232301999465562, 3.3756495999987237, 2.4511495000333525, 2.0237775000277907, 2.915276499988977, 2.818012599949725, 5.929079100023955]",nahiiiii,1,2023-11-09_01h15.50.436,ISB,2022.2.5,60.08033944
0.4,400,unexp,0,11,11,1,93.1684386,94.173931,94.173931,94.173931,space,2.1782894,96.76914692,97.248479,97.248479,97.248479,97.248479,700,12,"[6.817182699975092, 3.143667899945285, 4.750760700029787, 3.577181999979075, 3.723223099950701, 3.3756445999606512, 2.45114520000061, 2.0237693000235595, 2.9152677999809384, 2.8180047999485396, 5.929074199986644, 3.051912299997639]","[6.817192699993029, 3.143675400002394, 4.750766200013459, 3.577191499993205, 3.7232301999465562, 3.3756495999987237, 2.4511495000333525, 2.0237775000277907, 2.915276499988977, 2.818012599949725, 5.929079100023955, 3.051919599995017]",nahiiiii,1,2023-11-09_01h15.50.436,ISB,2022.2.5,60.08033944
0.4,1000,exp,1,0,12,7,100.3020954,101.3023786,101.3023786,101.3023786,space,0.3102176,102.0354206,,102.5096993,102.5096993,102.5096993,500,13,"[6.817182699975092, 3.143667899945285, 4.750760700029787, 3.577181999979075, 3.723223099950701, 3.3756445999606512, 2.45114520000061, 2.0237693000235595, 2.9152677999809384, 2.8180047999485396, 5.929074199986644, 3.051912299997639, 3.201943600026425]","[6.817192699993029, 3.143675400002394, 4.750766200013459, 3.577191499993205, 3.7232301999465562, 3.3756495999987237, 2.4511495000333525, 2.0237775000277907, 2.915276499988977, 2.818012599949725, 5.929079100023955, 3.051919599995017, 3.201949500013143]",nahiiiii,1,2023-11-09_01h15.50.436,ISB,2022.2.5,60.08033944
0.7,1000,exp,1,1,13,8,105.7186121,106.7187594,106.7187594,106.7187594,space,1.2724524,108.7188049,109.2082053,109.2082053,109.2082053,109.2082053,400,14,"[6.817182699975092, 3.143667899945285, 4.750760700029787, 3.577181999979075, 3.723223099950701, 3.3756445999606512, 2.45114520000061, 2.0237693000235595, 2.9152677999809384, 2.8180047999485396, 5.929074199986644, 3.051912299997639, 3.201943600026425, 3.5581099999835715]","[6.817192699993029, 3.143675400002394, 4.750766200013459, 3.577191499993205, 3.7232301999465562, 3.3756495999987237, 2.4511495000333525, 2.0237775000277907, 2.915276499988977, 2.818012599949725, 5.929079100023955, 3.051919599995017, 3.201949500013143, 3.558115799969528]",nahiiiii,1,2023-11-09_01h15.50.436,ISB,2022.2.5,60.08033944
0.1,1000,exp,1,2,14,3,112.7688531,113.7688246,113.7688246,113.7688246,space,0.1697608,114.068999,,114.5523425,114.5523425,114.5523425,200,15,"[6.817182699975092, 3.143667899945285, 4.750760700029787, 3.577181999979075, 3.723223099950701, 3.3756445999606512, 2.45114520000061, 2.0237693000235595, 2.9152677999809384, 2.8180047999485396, 5.929074199986644, 3.051912299997639, 3.201943600026425, 3.5581099999835715, 1.8640120000345632]","[6.817192699993029, 3.143675400002394, 4.750766200013459, 3.577191499993205, 3.7232301999465562, 3.3756495999987237, 2.4511495000333525, 2.0237775000277907, 2.915276499988977, 2.818012599949725, 5.929079100023955, 3.051919599995017, 3.201949500013143, 3.558115799969528, 1.8640175000182353]",nahiiiii,1,2023-11-09_01h15.50.436,ISB,2022.2.5,60.08033944
0.7,1000,exp,1,3,15,5,116.418815,117.4187427,117.4187427,117.4187427,space,0.4530292,118.6022396,119.0872813,119.0872813,119.0872813,119.0872813,300,16,"[6.817182699975092, 3.143667899945285, 4.750760700029787, 3.577181999979075, 3.723223099950701, 3.3756445999606512, 2.45114520000061, 2.0237693000235595, 2.9152677999809384, 2.8180047999485396, 5.929074199986644, 3.051912299997639, 3.201943600026425, 3.5581099999835715, 1.8640120000345632, 1.6615209000301547]","[6.817192699993029, 3.143675400002394, 4.750766200013459, 3.577191499993205, 3.7232301999465562, 3.3756495999987237, 2.4511495000333525, 2.0237775000277907, 2.915276499988977, 2.818012599949725, 5.929079100023955, 3.051919599995017, 3.201949500013143, 3.558115799969528, 1.8640175000182353, 1.6615275000222027]",nahiiiii,1,2023-11-09_01h15.50.436,ISB,2022.2.5,60.08033944
0.4,1000,exp,1,4,16,4,120.7521279,121.7526536,121.7526536,121.7526536,space,2.5713778,124.7524249,,125.2390106,125.2390106,125.2390106,250,17,"[6.817182699975092, 3.143667899945285, 4.750760700029787, 3.577181999979075, 3.723223099950701, 3.3756445999606512, 2.45114520000061, 2.0237693000235595, 2.9152677999809384, 2.8180047999485396, 5.929074199986644, 3.051912299997639, 3.201943600026425, 3.5581099999835715, 1.8640120000345632, 1.6615209000301547, 7.728283000004012]","[6.817192699993029, 3.143675400002394, 4.750766200013459, 3.577191499993205, 3.7232301999465562, 3.3756495999987237, 2.4511495000333525, 2.0237775000277907, 2.915276499988977, 2.818012599949725, 5.929079100023955, 3.051919599995017, 3.201949500013143, 3.558115799969528, 1.8640175000182353, 1.6615275000222027, 7.728288699989207]",nahiiiii,1,2023-11-09_01h15.50.436,ISB,2022.2.5,60.08033944
0.7,1000,exp,1,5,17,11,132.9688602,133.9690567,133.9690567,133.9690567,space,0.9612098,135.6520822,,136.1330706,136.1330706,136.1330706,600,18,"[6.817182699975092, 3.143667899945285, 4.750760700029787, 3.577181999979075, 3.723223099950701, 3.3756445999606512, 2.45114520000061, 2.0237693000235595, 2.9152677999809384, 2.8180047999485396, 5.929074199986644, 3.051912299997639, 3.201943600026425, 3.5581099999835715, 1.8640120000345632, 1.6615209000301547, 7.728283000004012, 2.2842576000257395]","[6.817192699993029, 3.143675400002394, 4.750766200013459, 3.577191499993205, 3.7232301999465562, 3.3756495999987237, 2.4511495000333525, 2.0237775000277907, 2.915276499988977, 2.818012599949725, 5.929079100023955, 3.051919599995017, 3.201949500013143, 3.558115799969528, 1.8640175000182353, 1.6615275000222027, 7.728288699989207, 2.284263400011696]",nahiiiii,1,2023-11-09_01h15.50.436,ISB,2022.2.5,60.08033944
0.7,400,unexp,1,6,18,2,138.4187972,139.4189518,139.4189518,139.4189518,space,1.3985449,141.5356019,,142.0085493,142.0085493,142.0085493,800,19,"[6.817182699975092, 3.143667899945285, 4.750760700029787, 3.577181999979075, 3.723223099950701, 3.3756445999606512, 2.45114520000061, 2.0237693000235595, 2.9152677999809384, 2.8180047999485396, 5.929074199986644, 3.051912299997639, 3.201943600026425, 3.5581099999835715, 1.8640120000345632, 1.6615209000301547, 7.728283000004012, 2.2842576000257395, 2.6755254000308923]","[6.817192699993029, 3.143675400002394, 4.750766200013459, 3.577191499993205, 3.7232301999465562, 3.3756495999987237, 2.4511495000333525, 2.0237775000277907, 2.915276499988977, 2.818012599949725, 5.929079100023955, 3.051919599995017, 3.201949500013143, 3.558115799969528, 1.8640175000182353, 1.6615275000222027, 7.728288699989207, 2.284263400011696, 2.6755309000145644]",nahiiiii,1,2023-11-09_01h15.50.436,ISB,2022.2.5,60.08033944
0.4,400,unexp,1,7,19,1,144.685321,145.6855988,145.6855988,145.6855988,space,11.2884924,157.402182,157.8789678,157.8789678,157.8789678,157.8789678,900,20,"[6.817182699975092, 3.143667899945285, 4.750760700029787, 3.577181999979075, 3.723223099950701, 3.3756445999606512, 2.45114520000061, 2.0237693000235595, 2.9152677999809384, 2.8180047999485396, 5.929074199986644, 3.051912299997639, 3.201943600026425, 3.5581099999835715, 1.8640120000345632, 1.6615209000301547, 7.728283000004012, 2.2842576000257395, 2.6755254000308923, 8.385536200017668]","[6.817192699993029, 3.143675400002394, 4.750766200013459, 3.577191499993205, 3.7232301999465562, 3.3756495999987237, 2.4511495000333525, 2.0237775000277907, 2.915276499988977, 2.818012599949725, 5.929079100023955, 3.051919599995017, 3.201949500013143, 3.558115799969528, 1.8640175000182353, 1.6615275000222027, 7.728288699989207, 2.284263400011696, 2.6755309000145644, 8.385540499992203]",nahiiiii,1,2023-11-09_01h15.50.436,ISB,2022.2.5,60.08033944
0.1,1000,exp,1,8,20,9,166.2687711,167.2690086,167.2690086,167.2690086,space,5.1714103,172.5691928,,173.0535237,173.0535237,173.0535237,800,21,"[6.817182699975092, 3.143667899945285, 4.750760700029787, 3.577181999979075, 3.723223099950701, 3.3756445999606512, 2.45114520000061, 2.0237693000235595, 2.9152677999809384, 2.8180047999485396, 5.929074199986644, 3.051912299997639, 3.201943600026425, 3.5581099999835715, 1.8640120000345632, 1.6615209000301547, 7.728283000004012, 2.2842576000257395, 2.6755254000308923, 8.385536200017668, 3.863071400031913]","[6.817192699993029, 3.143675400002394, 4.750766200013459, 3.577191499993205, 3.7232301999465562, 3.3756495999987237, 2.4511495000333525, 2.0237775000277907, 2.915276499988977, 2.818012599949725, 5.929079100023955, 3.051919599995017, 3.201949500013143, 3.558115799969528, 1.8640175000182353, 1.6615275000222027, 7.728288699989207, 2.284263400011696, 2.6755309000145644, 8.385540499992203, 3.8630920000141487]",nahiiiii,1,2023-11-09_01h15.50.436,ISB,2022.2.5,60.08033944
0.1,1000,exp,1,9,21,6,176.9187808,177.9191485,177.9191485,177.9191485,space,1.9455728,179.9857649,,180.4598242,180.4598242,180.4598242,800,22,"[6.817182699975092, 3.143667899945285, 4.750760700029787, 3.577181999979075, 3.723223099950701, 3.3756445999606512, 2.45114520000061, 2.0237693000235595, 2.9152677999809384, 2.8180047999485396, 5.929074199986644, 3.051912299997639, 3.201943600026425, 3.5581099999835715, 1.8640120000345632, 1.6615209000301547, 7.728283000004012, 2.2842576000257395, 2.6755254000308923, 8.385536200017668, 3.863071400031913, 2.8043928999686614]","[6.817192699993029, 3.143675400002394, 4.750766200013459, 3.577191499993205, 3.7232301999465562, 3.3756495999987237, 2.4511495000333525, 2.0237775000277907, 2.915276499988977, 2.818012599949725, 5.929079100023955, 3.051919599995017, 3.201949500013143, 3.558115799969528, 1.8640175000182353, 1.6615275000222027, 7.728288699989207, 2.284263400011696, 2.6755309000145644, 8.385540499992203, 3.8630920000141487, 2.8043980000074953]",nahiiiii,1,2023-11-09_01h15.50.436,ISB,2022.2.5,60.08033944
0.1,400,unexp,1,10,22,0,183.2690359,184.2691533,184.2691533,184.2691533,space,5.8492799,190.2353526,190.7174638,190.7174638,190.7174638,190.7174638,700,23,"[6.817182699975092, 3.143667899945285, 4.750760700029787, 3.577181999979075, 3.723223099950701, 3.3756445999606512, 2.45114520000061, 2.0237693000235595, 2.9152677999809384, 2.8180047999485396, 5.929074199986644, 3.051912299997639, 3.201943600026425, 3.5581099999835715, 1.8640120000345632, 1.6615209000301547, 7.728283000004012, 2.2842576000257395, 2.6755254000308923, 8.385536200017668, 3.863071400031913, 2.8043928999686614, 4.7981068000080995]","[6.817192699993029, 3.143675400002394, 4.750766200013459, 3.577191499993205, 3.7232301999465562, 3.3756495999987237, 2.4511495000333525, 2.0237775000277907, 2.915276499988977, 2.818012599949725, 5.929079100023955, 3.051919599995017, 3.201949500013143, 3.558115799969528, 1.8640175000182353, 1.6615275000222027, 7.728288699989207, 2.284263400011696, 2.6755309000145644, 8.385540499992203, 3.8630920000141487, 2.8043980000074953, 4.798112299991772]",nahiiiii,1,2023-11-09_01h15.50.436,ISB,2022.2.5,60.08033944
0.4,1000,exp,1,11,23,10,195.5188789,196.5188991,196.5188991,196.5188991,space,3.435603,200.3854194,200.8587448,200.8587448,200.8587448,200.8587448,600,24,"[6.817182699975092, 3.143667899945285, 4.750760700029787, 3.577181999979075, 3.723223099950701, 3.3756445999606512, 2.45114520000061, 2.0237693000235595, 2.9152677999809384, 2.8180047999485396, 5.929074199986644, 3.051912299997639, 3.201943600026425, 3.5581099999835715, 1.8640120000345632, 1.6615209000301547, 7.728283000004012, 2.2842576000257395, 2.6755254000308923, 8.385536200017668, 3.863071400031913, 2.8043928999686614, 4.7981068000080995, 5.50846670003375]","[6.817192699993029, 3.143675400002394, 4.750766200013459, 3.577191499993205, 3.7232301999465562, 3.3756495999987237, 2.4511495000333525, 2.0237775000277907, 2.915276499988977, 2.818012599949725, 5.929079100023955, 3.051919599995017, 3.201949500013143, 3.558115799969528, 1.8640175000182353, 1.6615275000222027, 7.728288699989207, 2.284263400011696, 2.6755309000145644, 8.385540499992203, 3.8630920000141487, 2.8043980000074953, 4.798112299991772, 5.508472900022753]",nahiiiii,1,2023-11-09_01h15.50.436,ISB,2022.2.5,60.08033944
0.1,1000,exp,2,0,24,3,206.3688039,207.3688365,207.3688365,207.3688365,space,3.3181151,210.8192344,,211.2973806,211.2973806,211.2973806,700,25,"[6.817182699975092, 3.143667899945285, 4.750760700029787, 3.577181999979075, 3.723223099950701, 3.3756445999606512, 2.45114520000061, 2.0237693000235595, 2.9152677999809384, 2.8180047999485396, 5.929074199986644, 3.051912299997639, 3.201943600026425, 3.5581099999835715, 1.8640120000345632, 1.6615209000301547, 7.728283000004012, 2.2842576000257395, 2.6755254000308923, 8.385536200017668, 3.863071400031913, 2.8043928999686614, 4.7981068000080995, 5.50846670003375, 4.618328400014434]","[6.817192699993029, 3.143675400002394, 4.750766200013459, 3.577191499993205, 3.7232301999465562, 3.3756495999987237, 2.4511495000333525, 2.0237775000277907, 2.915276499988977, 2.818012599949725, 5.929079100023955, 3.051919599995017, 3.201949500013143, 3.558115799969528, 1.8640175000182353, 1.6615275000222027, 7.728288699989207, 2.284263400011696, 2.6755309000145644, 8.385540499992203, 3.8630920000141487, 2.8043980000074953, 4.798112299991772, 5.508472900022753, 4.618334300001152]",nahiiiii,1,2023-11-09_01h15.50.436,ISB,2022.2.5,60.08033944
0.7,1000,exp,2,1,25,5,215.918742,216.9188302,216.9188302,216.9188302,space,1.782011,219.4193765,,219.9038749,219.9038749,219.9038749,900,26,"[6.817182699975092, 3.143667899945285, 4.750760700029787, 3.577181999979075, 3.723223099950701, 3.3756445999606512, 2.45114520000061, 2.0237693000235595, 2.9152677999809384, 2.8180047999485396, 5.929074199986644, 3.051912299997639, 3.201943600026425, 3.5581099999835715, 1.8640120000345632, 1.6615209000301547, 7.728283000004012, 2.2842576000257395, 2.6755254000308923, 8.385536200017668, 3.863071400031913, 2.8043928999686614, 4.7981068000080995, 5.50846670003375, 4.618328400014434, 4.961693499993999]","[6.817192699993029, 3.143675400002394, 4.750766200013459, 3.577191499993205, 3.7232301999465562, 3.3756495999987237, 2.4511495000333525, 2.0237775000277907, 2.915276499988977, 2.818012599949725, 5.929079100023955, 3.051919599995017, 3.201949500013143, 3.558115799969528, 1.8640175000182353, 1.6615275000222027, 7.728288699989207, 2.284263400011696, 2.6755309000145644, 8.385540499992203, 3.8630920000141487, 2.8043980000074953, 4.798112299991772, 5.508472900022753, 4.618334300001152, 4.961700199986808]",nahiiiii,1,2023-11-09_01h15.50.436,ISB,2022.2.5,60.08033944
0.1,1000,exp,2,2,26,6,224.8689939,225.8692626,225.8692626,225.8692626,space,2.5150794,228.502335,,228.9775143,228.9775143,228.9775143,600,27,"[6.817182699975092, 3.143667899945285, 4.750760700029787, 3.577181999979075, 3.723223099950701, 3.3756445999606512, 2.45114520000061, 2.0237693000235595, 2.9152677999809384, 2.8180047999485396, 5.929074199986644, 3.051912299997639, 3.201943600026425, 3.5581099999835715, 1.8640120000345632, 1.6615209000301547, 7.728283000004012, 2.2842576000257395, 2.6755254000308923, 8.385536200017668, 3.863071400031913, 2.8043928999686614, 4.7981068000080995, 5.50846670003375, 4.618328400014434, 4.961693499993999, 3.9213504000217654]","[6.817192699993029, 3.143675400002394, 4.750766200013459, 3.577191499993205, 3.7232301999465562, 3.3756495999987237, 2.4511495000333525, 2.0237775000277907, 2.915276499988977, 2.818012599949725, 5.929079100023955, 3.051919599995017, 3.201949500013143, 3.558115799969528, 1.8640175000182353, 1.6615275000222027, 7.728288699989207, 2.284263400011696, 2.6755309000145644, 8.385540499992203, 3.8630920000141487, 2.8043980000074953, 4.798112299991772, 5.508472900022753, 4.618334300001152, 4.961700199986808, 3.9213540999917313]",nahiiiii,1,2023-11-09_01h15.50.436,ISB,2022.2.5,60.08033944
0.4,1000,exp,2,3,27,4,232.9022207,233.902268,233.902268,233.902268,space,3.168286,237.5023,237.9869493,237.9869493,237.9869493,237.9869493,700,28,"[6.817182699975092, 3.143667899945285, 4.750760700029787, 3.577181999979075, 3.723223099950701, 3.3756445999606512, 2.45114520000061, 2.0237693000235595, 2.9152677999809384, 2.8180047999485396, 5.929074199986644, 3.051912299997639, 3.201943600026425, 3.5581099999835715, 1.8640120000345632, 1.6615209000301547, 7.728283000004012, 2.2842576000257395, 2.6755254000308923, 8.385536200017668, 3.863071400031913, 2.8043928999686614, 4.7981068000080995, 5.50846670003375, 4.618328400014434, 4.961693499993999, 3.9213504000217654, 4.246808199968655]","[6.817192699993029, 3.143675400002394, 4.750766200013459, 3.577191499993205, 3.7232301999465562, 3.3756495999987237, 2.4511495000333525, 2.0237775000277907, 2.915276499988977, 2.818012599949725, 5.929079100023955, 3.051919599995017, 3.201949500013143, 3.558115799969528, 1.8640175000182353, 1.6615275000222027, 7.728288699989207, 2.284263400011696, 2.6755309000145644, 8.385540499992203, 3.8630920000141487, 2.8043980000074953, 4.798112299991772, 5.508472900022753, 4.618334300001152, 4.961700199986808, 3.9213540999917313, 4.246816899976693]",nahiiiii,1,2023-11-09_01h15.50.436,ISB,2022.2.5,60.08033944
0.1,400,unexp,2,4,28,0,242.2358756,243.2356123,243.2356123,243.2356123,space,2.1609864,245.51906,,246.0065328,246.0065328,246.0065328,600,29,"[6.817182699975092, 3.143667899945285, 4.750760700029787, 3.577181999979075, 3.723223099950701, 3.3756445999606512, 2.45114520000061, 2.0237693000235595, 2.9152677999809384, 2.8180047999485396, 5.929074199986644, 3.051912299997639, 3.201943600026425, 3.5581099999835715, 1.8640120000345632, 1.6615209000301547, 7.728283000004012, 2.2842576000257395, 2.6755254000308923, 8.385536200017668, 3.863071400031913, 2.8043928999686614, 4.7981068000080995, 5.50846670003375, 4.618328400014434, 4.961693499993999, 3.9213504000217654, 4.246808199968655, 4.475626000028569]","[6.817192699993029, 3.143675400002394, 4.750766200013459, 3.577191499993205, 3.7232301999465562, 3.3756495999987237, 2.4511495000333525, 2.0237775000277907, 2.915276499988977, 2.818012599949725, 5.929079100023955, 3.051919599995017, 3.201949500013143, 3.558115799969528, 1.8640175000182353, 1.6615275000222027, 7.728288699989207, 2.284263400011696, 2.6755309000145644, 8.385540499992203, 3.8630920000141487, 2.8043980000074953, 4.798112299991772, 5.508472900022753, 4.618334300001152, 4.961700199986808, 3.9213540999917313, 4.246816899976693, 4.475631300010718]",nahiiiii,1,2023-11-09_01h15.50.436,ISB,2022.2.5,60.08033944
0.7,400,unexp,2,5,29,2,250.4857445,251.4857465,251.4857465,251.4857465,space,4.7750042,256.985723,257.4594407,257.4594407,257.4594407,257.4594407,900,30,"[6.817182699975092, 3.143667899945285, 4.750760700029787, 3.577181999979075, 3.723223099950701, 3.3756445999606512, 2.45114520000061, 2.0237693000235595, 2.9152677999809384, 2.8180047999485396, 5.929074199986644, 3.051912299997639, 3.201943600026425, 3.5581099999835715, 1.8640120000345632, 1.6615209000301547, 7.728283000004012, 2.2842576000257395, 2.6755254000308923, 8.385536200017668, 3.863071400031913, 2.8043928999686614, 4.7981068000080995, 5.50846670003375, 4.618328400014434, 4.961693499993999, 3.9213504000217654, 4.246808199968655, 4.475626000028569, 4.039820200006943]","[6.817192699993029, 3.143675400002394, 4.750766200013459, 3.577191499993205, 3.7232301999465562, 3.3756495999987237, 2.4511495000333525, 2.0237775000277907, 2.915276499988977, 2.818012599949725, 5.929079100023955, 3.051919599995017, 3.201949500013143, 3.558115799969528, 1.8640175000182353, 1.6615275000222027, 7.728288699989207, 2.284263400011696, 2.6755309000145644, 8.385540499992203, 3.8630920000141487, 2.8043980000074953, 4.798112299991772, 5.508472900022753, 4.618334300001152, 4.961700199986808, 3.9213540999917313, 4.246816899976693, 4.475631300010718, 4.039824899984524]",nahiiiii,1,2023-11-09_01h15.50.436,ISB,2022.2.5,60.08033944
0.7,1000,exp,2,6,30,11,261.502609,262.5026716,262.5026716,262.5026716,space,2.9315565,266.1525055,266.6377528,266.6377528,266.6377528,266.6377528,900,31,"[6.817182699975092, 3.143667899945285, 4.750760700029787, 3.577181999979075, 3.723223099950701, 3.3756445999606512, 2.45114520000061, 2.0237693000235595, 2.9152677999809384, 2.8180047999485396, 5.929074199986644, 3.051912299997639, 3.201943600026425, 3.5581099999835715, 1.8640120000345632, 1.6615209000301547, 7.728283000004012, 2.2842576000257395, 2.6755254000308923, 8.385536200017668, 3.863071400031913, 2.8043928999686614, 4.7981068000080995, 5.50846670003375, 4.618328400014434, 4.961693499993999, 3.9213504000217654, 4.246808199968655, 4.475626000028569, 4.039820200006943, 3.1110553999897093]","[6.817192699993029, 3.143675400002394, 4.750766200013459, 3.577191499993205, 3.7232301999465562, 3.3756495999987237, 2.4511495000333525, 2.0237775000277907, 2.915276499988977, 2.818012599949725, 5.929079100023955, 3.051919599995017, 3.201949500013143, 3.558115799969528, 1.8640175000182353, 1.6615275000222027, 7.728288699989207, 2.284263400011696, 2.6755309000145644, 8.385540499992203, 3.8630920000141487, 2.8043980000074953, 4.798112299991772, 5.508472900022753, 4.618334300001152, 4.961700199986808, 3.9213540999917313, 4.246816899976693, 4.475631300010718, 4.039824899984524, 3.1110611999756657]",nahiiiii,1,2023-11-09_01h15.50.436,ISB,2022.2.5,60.08033944
0.4,400,unexp,2,7,31,1,269.7523073,270.7525385,270.7525385,270.7525385,space,0.5734035,271.7522439,272.2291451,272.2291451,272.2291451,272.2291451,700,32,"[6.817182699975092, 3.143667899945285, 4.750760700029787, 3.577181999979075, 3.723223099950701, 3.3756445999606512, 2.45114520000061, 2.0237693000235595, 2.9152677999809384, 2.8180047999485396, 5.929074199986644, 3.051912299997639, 3.201943600026425, 3.5581099999835715, 1.8640120000345632, 1.6615209000301547, 7.728283000004012, 2.2842576000257395, 2.6755254000308923, 8.385536200017668, 3.863071400031913, 2.8043928999686614, 4.7981068000080995, 5.50846670003375, 4.618328400014434, 4.961693499993999, 3.9213504000217654, 4.246808199968655, 4.475626000028569, 4.039820200006943, 3.1110553999897093, 2.838122100045439]","[6.817192699993029, 3.143675400002394, 4.750766200013459, 3.577191499993205, 3.7232301999465562, 3.3756495999987237, 2.4511495000333525, 2.0237775000277907, 2.915276499988977, 2.818012599949725, 5.929079100023955, 3.051919599995017, 3.201949500013143, 3.558115799969528, 1.8640175000182353, 1.6615275000222027, 7.728288699989207, 2.284263400011696, 2.6755309000145644, 8.385540499992203, 3.8630920000141487, 2.8043980000074953, 4.798112299991772, 5.508472900022753, 4.618334300001152, 4.961700199986808, 3.9213540999917313, 4.246816899976693, 4.475631300010718, 4.039824899984524, 3.1110611999756657, 2.8381284000352025]",nahiiiii,1,2023-11-09_01h15.50.436,ISB,2022.2.5,60.08033944
0.7,1000,exp,2,8,32,8,275.0691558,276.0693481,276.0693481,276.0693481,space,0.333005,277.119208,,277.5985557,277.5985557,277.5985557,400,33,"[6.817182699975092, 3.143667899945285, 4.750760700029787, 3.577181999979075, 3.723223099950701, 3.3756445999606512, 2.45114520000061, 2.0237693000235595, 2.9152677999809384, 2.8180047999485396, 5.929074199986644, 3.051912299997639, 3.201943600026425, 3.5581099999835715, 1.8640120000345632, 1.6615209000301547, 7.728283000004012, 2.2842576000257395, 2.6755254000308923, 8.385536200017668, 3.863071400031913, 2.8043928999686614, 4.7981068000080995, 5.50846670003375, 4.618328400014434, 4.961693499993999, 3.9213504000217654, 4.246808199968655, 4.475626000028569, 4.039820200006943, 3.1110553999897093, 2.838122100045439, 3.218078800011426]","[6.817192699993029, 3.143675400002394, 4.750766200013459, 3.577191499993205, 3.7232301999465562, 3.3756495999987237, 2.4511495000333525, 2.0237775000277907, 2.915276499988977, 2.818012599949725, 5.929079100023955, 3.051919599995017, 3.201949500013143, 3.558115799969528, 1.8640175000182353, 1.6615275000222027, 7.728288699989207, 2.284263400011696, 2.6755309000145644, 8.385540499992203, 3.8630920000141487, 2.8043980000074953, 4.798112299991772, 5.508472900022753, 4.618334300001152, 4.961700199986808, 3.9213540999917313, 4.246816899976693, 4.475631300010718, 4.039824899984524, 3.1110611999756657, 2.8381284000352025, 3.2180843999958597]",nahiiiii,1,2023-11-09_01h15.50.436,ISB,2022.2.5,60.08033944
0.4,1000,exp,2,9,33,10,280.8189433,281.8192166,281.8192166,281.8192166,space,0.2729441,282.5191871,,283.0079747,283.0079747,283.0079747,500,34,"[6.817182699975092, 3.143667899945285, 4.750760700029787, 3.577181999979075, 3.723223099950701, 3.3756445999606512, 2.45114520000061, 2.0237693000235595, 2.9152677999809384, 2.8180047999485396, 5.929074199986644, 3.051912299997639, 3.201943600026425, 3.5581099999835715, 1.8640120000345632, 1.6615209000301547, 7.728283000004012, 2.2842576000257395, 2.6755254000308923, 8.385536200017668, 3.863071400031913, 2.8043928999686614, 4.7981068000080995, 5.50846670003375, 4.618328400014434, 4.961693499993999, 3.9213504000217654, 4.246808199968655, 4.475626000028569, 4.039820200006943, 3.1110553999897093, 2.838122100045439, 3.218078800011426, 2.1774313999922015]","[6.817192699993029, 3.143675400002394, 4.750766200013459, 3.577191499993205, 3.7232301999465562, 3.3756495999987237, 2.4511495000333525, 2.0237775000277907, 2.915276499988977, 2.818012599949725, 5.929079100023955, 3.051919599995017, 3.201949500013143, 3.558115799969528, 1.8640175000182353, 1.6615275000222027, 7.728288699989207, 2.284263400011696, 2.6755309000145644, 8.385540499992203, 3.8630920000141487, 2.8043980000074953, 4.798112299991772, 5.508472900022753, 4.618334300001152, 4.961700199986808, 3.9213540999917313, 4.246816899976693, 4.475631300010718, 4.039824899984524, 3.1110611999756657, 2.8381284000352025, 3.2180843999958597, 2.1774384999880567]",nahiiiii,1,2023-11-09_01h15.50.436,ISB,2022.2.5,60.08033944
0.4,1000,exp,2,10,34,7,285.1856993,286.1917667,286.1917667,286.1917667,space,5.405077,292.0190882,292.5085556,292.5085556,292.5085556,292.5085556,500,35,"[6.817182699975092, 3.143667899945285, 4.750760700029787, 3.577181999979075, 3.723223099950701, 3.3756445999606512, 2.45114520000061, 2.0237693000235595, 2.9152677999809384, 2.8180047999485396, 5.929074199986644, 3.051912299997639, 3.201943600026425, 3.5581099999835715, 1.8640120000345632, 1.6615209000301547, 7.728283000004012, 2.2842576000257395, 2.6755254000308923, 8.385536200017668, 3.863071400031913, 2.8043928999686614, 4.7981068000080995, 5.50846670003375, 4.618328400014434, 4.961693499993999, 3.9213504000217654, 4.246808199968655, 4.475626000028569, 4.039820200006943, 3.1110553999897093, 2.838122100045439, 3.218078800011426, 2.1774313999922015, 7.1419427000219]","[6.817192699993029, 3.143675400002394, 4.750766200013459, 3.577191499993205, 3.7232301999465562, 3.3756495999987237, 2.4511495000333525, 2.0237775000277907, 2.915276499988977, 2.818012599949725, 5.929079100023955, 3.051919599995017, 3.201949500013143, 3.558115799969528, 1.8640175000182353, 1.6615275000222027, 7.728288699989207, 2.284263400011696, 2.6755309000145644, 8.385540499992203, 3.8630920000141487, 2.8043980000074953, 4.798112299991772, 5.508472900022753, 4.618334300001152, 4.961700199986808, 3.9213540999917313, 4.246816899976693, 4.475631300010718, 4.039824899984524, 3.1110611999756657, 2.8381284000352025, 3.2180843999958597, 2.1774384999880567, 7.141964700014796]",nahiiiii,1,2023-11-09_01h15.50.436,ISB,2022.2.5,60.08033944
0.1,1000,exp,2,11,35,9,299.6523437,300.6524124,300.6524124,300.6524124,space,1.7263676,302.5024445,302.9836153,302.9836153,302.9836153,302.9836153,600,36,"[6.817182699975092, 3.143667899945285, 4.750760700029787, 3.577181999979075, 3.723223099950701, 3.3756445999606512, 2.45114520000061, 2.0237693000235595, 2.9152677999809384, 2.8180047999485396, 5.929074199986644, 3.051912299997639, 3.201943600026425, 3.5581099999835715, 1.8640120000345632, 1.6615209000301547, 7.728283000004012, 2.2842576000257395, 2.6755254000308923, 8.385536200017668, 3.863071400031913, 2.8043928999686614, 4.7981068000080995, 5.50846670003375, 4.618328400014434, 4.961693499993999, 3.9213504000217654, 4.246808199968655, 4.475626000028569, 4.039820200006943, 3.1110553999897093, 2.838122100045439, 3.218078800011426, 2.1774313999922015, 7.1419427000219, 5.147285400016699]","[6.817192699993029, 3.143675400002394, 4.750766200013459, 3.577191499993205, 3.7232301999465562, 3.3756495999987237, 2.4511495000333525, 2.0237775000277907, 2.915276499988977, 2.818012599949725, 5.929079100023955, 3.051919599995017, 3.201949500013143, 3.558115799969528, 1.8640175000182353, 1.6615275000222027, 7.728288699989207, 2.284263400011696, 2.6755309000145644, 8.385540499992203, 3.8630920000141487, 2.8043980000074953, 4.798112299991772, 5.508472900022753, 4.618334300001152, 4.961700199986808, 3.9213540999917313, 4.246816899976693, 4.475631300010718, 4.039824899984524, 3.1110611999756657, 2.8381284000352025, 3.2180843999958597, 2.1774384999880567, 7.141964700014796, 5.147294899972621]",nahiiiii,1,2023-11-09_01h15.50.436,ISB,2022.2.5,60.08033944
0.7,400,unexp,3,0,36,2,308.1358682,309.1358519,309.1358519,309.1358519,space,0.5188767,310.386046,310.8646834,310.8646834,310.8646834,310.8646834,400,37,"[6.817182699975092, 3.143667899945285, 4.750760700029787, 3.577181999979075, 3.723223099950701, 3.3756445999606512, 2.45114520000061, 2.0237693000235595, 2.9152677999809384, 2.8180047999485396, 5.929074199986644, 3.051912299997639, 3.201943600026425, 3.5581099999835715, 1.8640120000345632, 1.6615209000301547, 7.728283000004012, 2.2842576000257395, 2.6755254000308923, 8.385536200017668, 3.863071400031913, 2.8043928999686614, 4.7981068000080995, 5.50846670003375, 4.618328400014434, 4.961693499993999, 3.9213504000217654, 4.246808199968655, 4.475626000028569, 4.039820200006943, 3.1110553999897093, 2.838122100045439, 3.218078800011426, 2.1774313999922015, 7.1419427000219, 5.147285400016699, 4.918379199982155]","[6.817192699993029, 3.143675400002394, 4.750766200013459, 3.577191499993205, 3.7232301999465562, 3.3756495999987237, 2.4511495000333525, 2.0237775000277907, 2.915276499988977, 2.818012599949725, 5.929079100023955, 3.051919599995017, 3.201949500013143, 3.558115799969528, 1.8640175000182353, 1.6615275000222027, 7.728288699989207, 2.284263400011696, 2.6755309000145644, 8.385540499992203, 3.8630920000141487, 2.8043980000074953, 4.798112299991772, 5.508472900022753, 4.618334300001152, 4.961700199986808, 3.9213540999917313, 4.246816899976693, 4.475631300010718, 4.039824899984524, 3.1110611999756657, 2.8381284000352025, 3.2180843999958597, 2.1774384999880567, 7.141964700014796, 5.147294899972621, 4.918385100027081]",nahiiiii,1,2023-11-09_01h15.50.436,ISB,2022.2.5,60.08033944
0.4,1000,exp,3,1,37,4,315.785763,316.7859495,316.7859495,316.7859495,space,6.1851769,323.4024186,,323.8774943,323.8774943,323.8774943,650,38,"[6.817182699975092, 3.143667899945285, 4.750760700029787, 3.577181999979075, 3.723223099950701, 3.3756445999606512, 2.45114520000061, 2.0237693000235595, 2.9152677999809384, 2.8180047999485396, 5.929074199986644, 3.051912299997639, 3.201943600026425, 3.5581099999835715, 1.8640120000345632, 1.6615209000301547, 7.728283000004012, 2.2842576000257395, 2.6755254000308923, 8.385536200017668, 3.863071400031913, 2.8043928999686614, 4.7981068000080995, 5.50846670003375, 4.618328400014434, 4.961693499993999, 3.9213504000217654, 4.246808199968655, 4.475626000028569, 4.039820200006943, 3.1110553999897093, 2.838122100045439, 3.218078800011426, 2.1774313999922015, 7.1419427000219, 5.147285400016699, 4.918379199982155, 5.755438700027298]","[6.817192699993029, 3.143675400002394, 4.750766200013459, 3.577191499993205, 3.7232301999465562, 3.3756495999987237, 2.4511495000333525, 2.0237775000277907, 2.915276499988977, 2.818012599949725, 5.929079100023955, 3.051919599995017, 3.201949500013143, 3.558115799969528, 1.8640175000182353, 1.6615275000222027, 7.728288699989207, 2.284263400011696, 2.6755309000145644, 8.385540499992203, 3.8630920000141487, 2.8043980000074953, 4.798112299991772, 5.508472900022753, 4.618334300001152, 4.961700199986808, 3.9213540999917313, 4.246816899976693, 4.475631300010718, 4.039824899984524, 3.1110611999756657, 2.8381284000352025, 3.2180843999958597, 2.1774384999880567, 7.141964700014796, 5.147294899972621, 4.918385100027081, 5.7554449000163]",nahiiiii,1,2023-11-09_01h15.50.436,ISB,2022.2.5,60.08033944
0.7,1000,exp,3,2,38,8,329.6357615,330.6358837,330.6358837,330.6358837,space,22.6993126,354.0526072,,354.5318167,354.5318167,354.5318167,700,39,"[6.817182699975092, 3.143667899945285, 4.750760700029787, 3.577181999979075, 3.723223099950701, 3.3756445999606512, 2.45114520000061, 2.0237693000235595, 2.9152677999809384, 2.8180047999485396, 5.929074199986644, 3.051912299997639, 3.201943600026425, 3.5581099999835715, 1.8640120000345632, 1.6615209000301547, 7.728283000004012, 2.2842576000257395, 2.6755254000308923, 8.385536200017668, 3.863071400031913, 2.8043928999686614, 4.7981068000080995, 5.50846670003375, 4.618328400014434, 4.961693499993999, 3.9213504000217654, 4.246808199968655, 4.475626000028569, 4.039820200006943, 3.1110553999897093, 2.838122100045439, 3.218078800011426, 2.1774313999922015, 7.1419427000219, 5.147285400016699, 4.918379199982155, 5.755438700027298, 2.3179365000105463]","[6.817192699993029, 3.143675400002394, 4.750766200013459, 3.577191499993205, 3.7232301999465562, 3.3756495999987237, 2.4511495000333525, 2.0237775000277907, 2.915276499988977, 2.818012599949725, 5.929079100023955, 3.051919599995017, 3.201949500013143, 3.558115799969528, 1.8640175000182353, 1.6615275000222027, 7.728288699989207, 2.284263400011696, 2.6755309000145644, 8.385540499992203, 3.8630920000141487, 2.8043980000074953, 4.798112299991772, 5.508472900022753, 4.618334300001152, 4.961700199986808, 3.9213540999917313, 4.246816899976693, 4.475631300010718, 4.039824899984524, 3.1110611999756657, 2.8381284000352025, 3.2180843999958597, 2.1774384999880567, 7.141964700014796, 5.147294899972621, 4.918385100027081, 5.7554449000163, 2.3179413999896497]",nahiiiii,1,2023-11-09_01h15.50.436,ISB,2022.2.5,60.08033944
0.4,1000,exp,3,3,39,10,356.8526644,357.8526984,357.8526984,357.8526984,space,5.5662634,363.8360841,,364.3102079,364.3102079,364.3102079,500,40,"[6.817182699975092, 3.143667899945285, 4.750760700029787, 3.577181999979075, 3.723223099950701, 3.3756445999606512, 2.45114520000061, 2.0237693000235595, 2.9152677999809384, 2.8180047999485396, 5.929074199986644, 3.051912299997639, 3.201943600026425, 3.5581099999835715, 1.8640120000345632, 1.6615209000301547, 7.728283000004012, 2.2842576000257395, 2.6755254000308923, 8.385536200017668, 3.863071400031913, 2.8043928999686614, 4.7981068000080995, 5.50846670003375, 4.618328400014434, 4.961693499993999, 3.9213504000217654, 4.246808199968655, 4.475626000028569, 4.039820200006943, 3.1110553999897093, 2.838122100045439, 3.218078800011426, 2.1774313999922015, 7.1419427000219, 5.147285400016699, 4.918379199982155, 5.755438700027298, 2.3179365000105463, 4.191544999950565]","[6.817192699993029, 3.143675400002394, 4.750766200013459, 3.577191499993205, 3.7232301999465562, 3.3756495999987237, 2.4511495000333525, 2.0237775000277907, 2.915276499988977, 2.818012599949725, 5.929079100023955, 3.051919599995017, 3.201949500013143, 3.558115799969528, 1.8640175000182353, 1.6615275000222027, 7.728288699989207, 2.284263400011696, 2.6755309000145644, 8.385540499992203, 3.8630920000141487, 2.8043980000074953, 4.798112299991772, 5.508472900022753, 4.618334300001152, 4.961700199986808, 3.9213540999917313, 4.246816899976693, 4.475631300010718, 4.039824899984524, 3.1110611999756657, 2.8381284000352025, 3.2180843999958597, 2.1774384999880567, 7.141964700014796, 5.147294899972621, 4.918385100027081, 5.7554449000163, 2.3179413999896497, 4.191549799987115]",nahiiiii,1,2023-11-09_01h15.50.436,ISB,2022.2.5,60.08033944
0.1,400,unexp,3,4,40,0,368.5024305,369.5026638,369.5026638,369.5026638,space,12.8702393,382.5026757,382.9874223,382.9874223,382.9874223,382.9874223,400,41,"[6.817182699975092, 3.143667899945285, 4.750760700029787, 3.577181999979075, 3.723223099950701, 3.3756445999606512, 2.45114520000061, 2.0237693000235595, 2.9152677999809384, 2.8180047999485396, 5.929074199986644, 3.051912299997639, 3.201943600026425, 3.5581099999835715, 1.8640120000345632, 1.6615209000301547, 7.728283000004012, 2.2842576000257395, 2.6755254000308923, 8.385536200017668, 3.863071400031913, 2.8043928999686614, 4.7981068000080995, 5.50846670003375, 4.618328400014434, 4.961693499993999, 3.9213504000217654, 4.246808199968655, 4.475626000028569, 4.039820200006943, 3.1110553999897093, 2.838122100045439, 3.218078800011426, 2.1774313999922015, 7.1419427000219, 5.147285400016699, 4.918379199982155, 5.755438700027298, 2.3179365000105463, 4.191544999950565, 5.211781300022267]","[6.817192699993029, 3.143675400002394, 4.750766200013459, 3.577191499993205, 3.7232301999465562, 3.3756495999987237, 2.4511495000333525, 2.0237775000277907, 2.915276499988977, 2.818012599949725, 5.929079100023955, 3.051919599995017, 3.201949500013143, 3.558115799969528, 1.8640175000182353, 1.6615275000222027, 7.728288699989207, 2.284263400011696, 2.6755309000145644, 8.385540499992203, 3.8630920000141487, 2.8043980000074953, 4.798112299991772, 5.508472900022753, 4.618334300001152, 4.961700199986808, 3.9213540999917313, 4.246816899976693, 4.475631300010718, 4.039824899984524, 3.1110611999756657, 2.8381284000352025, 3.2180843999958597, 2.1774384999880567, 7.141964700014796, 5.147294899972621, 4.918385100027081, 5.7554449000163, 2.3179413999896497, 4.191549799987115, 5.21178620000137]",nahiiiii,1,2023-11-09_01h15.50.436,ISB,2022.2.5,60.08033944
0.4,1000,exp,3,5,41,7,388.2024857,389.2027546,389.2027546,389.2027546,space,0.6448968,390.2697163,,390.7489719,390.7489719,390.7489719,400,42,"[6.817182699975092, 3.143667899945285, 4.750760700029787, 3.577181999979075, 3.723223099950701, 3.3756445999606512, 2.45114520000061, 2.0237693000235595, 2.9152677999809384, 2.8180047999485396, 5.929074199986644, 3.051912299997639, 3.201943600026425, 3.5581099999835715, 1.8640120000345632, 1.6615209000301547, 7.728283000004012, 2.2842576000257395, 2.6755254000308923, 8.385536200017668, 3.863071400031913, 2.8043928999686614, 4.7981068000080995, 5.50846670003375, 4.618328400014434, 4.961693499993999, 3.9213504000217654, 4.246808199968655, 4.475626000028569, 4.039820200006943, 3.1110553999897093, 2.838122100045439, 3.218078800011426, 2.1774313999922015, 7.1419427000219, 5.147285400016699, 4.918379199982155, 5.755438700027298, 2.3179365000105463, 4.191544999950565, 5.211781300022267, 1.9668319000047632]","[6.817192699993029, 3.143675400002394, 4.750766200013459, 3.577191499993205, 3.7232301999465562, 3.3756495999987237, 2.4511495000333525, 2.0237775000277907, 2.915276499988977, 2.818012599949725, 5.929079100023955, 3.051919599995017, 3.201949500013143, 3.558115799969528, 1.8640175000182353, 1.6615275000222027, 7.728288699989207, 2.284263400011696, 2.6755309000145644, 8.385540499992203, 3.8630920000141487, 2.8043980000074953, 4.798112299991772, 5.508472900022753, 4.618334300001152, 4.961700199986808, 3.9213540999917313, 4.246816899976693, 4.475631300010718, 4.039824899984524, 3.1110611999756657, 2.8381284000352025, 3.2180843999958597, 2.1774384999880567, 7.141964700014796, 5.147294899972621, 4.918385100027081, 5.7554449000163, 2.3179413999896497, 4.191549799987115, 5.21178620000137, 1.9668372999876738]",nahiiiii,1,2023-11-09_01h15.50.436,ISB,2022.2.5,60.08033944
0.1,1000,exp,3,6,42,9,392.7191493,393.7193599,393.7193599,393.7193599,space,0.4818125,394.3194172,,394.805503,394.805503,394.805503,700,43,"[6.817182699975092, 3.143667899945285, 4.750760700029787, 3.577181999979075, 3.723223099950701, 3.3756445999606512, 2.45114520000061, 2.0237693000235595, 2.9152677999809384, 2.8180047999485396, 5.929074199986644, 3.051912299997639, 3.201943600026425, 3.5581099999835715, 1.8640120000345632, 1.6615209000301547, 7.728283000004012, 2.2842576000257395, 2.6755254000308923, 8.385536200017668, 3.863071400031913, 2.8043928999686614, 4.7981068000080995, 5.50846670003375, 4.618328400014434, 4.961693499993999, 3.9213504000217654, 4.246808199968655, 4.475626000028569, 4.039820200006943, 3.1110553999897093, 2.838122100045439, 3.218078800011426, 2.1774313999922015, 7.1419427000219, 5.147285400016699, 4.918379199982155, 5.755438700027298, 2.3179365000105463, 4.191544999950565, 5.211781300022267, 1.9668319000047632, 1.6439260999904945]","[6.817192699993029, 3.143675400002394, 4.750766200013459, 3.577191499993205, 3.7232301999465562, 3.3756495999987237, 2.4511495000333525, 2.0237775000277907, 2.915276499988977, 2.818012599949725, 5.929079100023955, 3.051919599995017, 3.201949500013143, 3.558115799969528, 1.8640175000182353, 1.6615275000222027, 7.728288699989207, 2.284263400011696, 2.6755309000145644, 8.385540499992203, 3.8630920000141487, 2.8043980000074953, 4.798112299991772, 5.508472900022753, 4.618334300001152, 4.961700199986808, 3.9213540999917313, 4.246816899976693, 4.475631300010718, 4.039824899984524, 3.1110611999756657, 2.8381284000352025, 3.2180843999958597, 2.1774384999880567, 7.141964700014796, 5.147294899972621, 4.918385100027081, 5.7554449000163, 2.3179413999896497, 4.191549799987115, 5.21178620000137, 1.9668372999876738, 1.6439324000384659]",nahiiiii,1,2023-11-09_01h15.50.436,ISB,2022.2.5,60.08033944
0.4,400,unexp,3,7,43,1,396.4529209,397.4528292,397.4528292,397.4528292,space,0.7312349,398.6026781,399.084634,399.084634,399.084634,399.084634,600,44,"[6.817182699975092, 3.143667899945285, 4.750760700029787, 3.577181999979075, 3.723223099950701, 3.3756445999606512, 2.45114520000061, 2.0237693000235595, 2.9152677999809384, 2.8180047999485396, 5.929074199986644, 3.051912299997639, 3.201943600026425, 3.5581099999835715, 1.8640120000345632, 1.6615209000301547, 7.728283000004012, 2.2842576000257395, 2.6755254000308923, 8.385536200017668, 3.863071400031913, 2.8043928999686614, 4.7981068000080995, 5.50846670003375, 4.618328400014434, 4.961693499993999, 3.9213504000217654, 4.246808199968655, 4.475626000028569, 4.039820200006943, 3.1110553999897093, 2.838122100045439, 3.218078800011426, 2.1774313999922015, 7.1419427000219, 5.147285400016699, 4.918379199982155, 5.755438700027298, 2.3179365000105463, 4.191544999950565, 5.211781300022267, 1.9668319000047632, 1.6439260999904945, 1.7339359000325203]","[6.817192699993029, 3.143675400002394, 4.750766200013459, 3.577191499993205, 3.7232301999465562, 3.3756495999987237, 2.4511495000333525, 2.0237775000277907, 2.915276499988977, 2.818012599949725, 5.929079100023955, 3.051919599995017, 3.201949500013143, 3.558115799969528, 1.8640175000182353, 1.6615275000222027, 7.728288699989207, 2.284263400011696, 2.6755309000145644, 8.385540499992203, 3.8630920000141487, 2.8043980000074953, 4.798112299991772, 5.508472900022753, 4.618334300001152, 4.961700199986808, 3.9213540999917313, 4.246816899976693, 4.475631300010718, 4.039824899984524, 3.1110611999756657, 2.8381284000352025, 3.2180843999958597, 2.1774384999880567, 7.141964700014796, 5.147294899972621, 4.918385100027081, 5.7554449000163, 2.3179413999896497, 4.191549799987115, 5.21178620000137, 1.9668372999876738, 1.6439324000384659, 1.733940900012385]",nahiiiii,1,2023-11-09_01h15.50.436,ISB,2022.2.5,60.08033944
0.1,1000,exp,3,8,44,6,400.8192586,401.8196279,401.8196279,401.8196279,space,43.698086,445.6362613,446.1163335,446.1163335,446.1163335,446.1163335,600,45,"[6.817182699975092, 3.143667899945285, 4.750760700029787, 3.577181999979075, 3.723223099950701, 3.3756445999606512, 2.45114520000061, 2.0237693000235595, 2.9152677999809384, 2.8180047999485396, 5.929074199986644, 3.051912299997639, 3.201943600026425, 3.5581099999835715, 1.8640120000345632, 1.6615209000301547, 7.728283000004012, 2.2842576000257395, 2.6755254000308923, 8.385536200017668, 3.863071400031913, 2.8043928999686614, 4.7981068000080995, 5.50846670003375, 4.618328400014434, 4.961693499993999, 3.9213504000217654, 4.246808199968655, 4.475626000028569, 4.039820200006943, 3.1110553999897093, 2.838122100045439, 3.218078800011426, 2.1774313999922015, 7.1419427000219, 5.147285400016699, 4.918379199982155, 5.755438700027298, 2.3179365000105463, 4.191544999950565, 5.211781300022267, 1.9668319000047632, 1.6439260999904945, 1.7339359000325203, 2.7342210999922827]","[6.817192699993029, 3.143675400002394, 4.750766200013459, 3.577191499993205, 3.7232301999465562, 3.3756495999987237, 2.4511495000333525, 2.0237775000277907, 2.915276499988977, 2.818012599949725, 5.929079100023955, 3.051919599995017, 3.201949500013143, 3.558115799969528, 1.8640175000182353, 1.6615275000222027, 7.728288699989207, 2.284263400011696, 2.6755309000145644, 8.385540499992203, 3.8630920000141487, 2.8043980000074953, 4.798112299991772, 5.508472900022753, 4.618334300001152, 4.961700199986808, 3.9213540999917313, 4.246816899976693, 4.475631300010718, 4.039824899984524, 3.1110611999756657, 2.8381284000352025, 3.2180843999958597, 2.1774384999880567, 7.141964700014796, 5.147294899972621, 4.918385100027081, 5.7554449000163, 2.3179413999896497, 4.191549799987115, 5.21178620000137, 1.9668372999876738, 1.6439324000384659, 1.733940900012385, 2.7342264999751933]",nahiiiii,1,2023-11-09_01h15.50.436,ISB,2022.2.5,60.08033944
0.1,1000,exp,3,9,45,3,448.8524477,449.8527779,449.8527779,449.8527779,space,0.1982703,450.1693881,,450.6538791,450.6538791,450.6538791,500,46,"[6.817182699975092, 3.143667899945285, 4.750760700029787, 3.577181999979075, 3.723223099950701, 3.3756445999606512, 2.45114520000061, 2.0237693000235595, 2.9152677999809384, 2.8180047999485396, 5.929074199986644, 3.051912299997639, 3.201943600026425, 3.5581099999835715, 1.8640120000345632, 1.6615209000301547, 7.728283000004012, 2.2842576000257395, 2.6755254000308923, 8.385536200017668, 3.863071400031913, 2.8043928999686614, 4.7981068000080995, 5.50846670003375, 4.618328400014434, 4.961693499993999, 3.9213504000217654, 4.246808199968655, 4.475626000028569, 4.039820200006943, 3.1110553999897093, 2.838122100045439, 3.218078800011426, 2.1774313999922015, 7.1419427000219, 5.147285400016699, 4.918379199982155, 5.755438700027298, 2.3179365000105463, 4.191544999950565, 5.211781300022267, 1.9668319000047632, 1.6439260999904945, 1.7339359000325203, 2.7342210999922827, 1.8784216999774799]","[6.817192699993029, 3.143675400002394, 4.750766200013459, 3.577191499993205, 3.7232301999465562, 3.3756495999987237, 2.4511495000333525, 2.0237775000277907, 2.915276499988977, 2.818012599949725, 5.929079100023955, 3.051919599995017, 3.201949500013143, 3.558115799969528, 1.8640175000182353, 1.6615275000222027, 7.728288699989207, 2.284263400011696, 2.6755309000145644, 8.385540499992203, 3.8630920000141487, 2.8043980000074953, 4.798112299991772, 5.508472900022753, 4.618334300001152, 4.961700199986808, 3.9213540999917313, 4.246816899976693, 4.475631300010718, 4.039824899984524, 3.1110611999756657, 2.8381284000352025, 3.2180843999958597, 2.1774384999880567, 7.141964700014796, 5.147294899972621, 4.918385100027081, 5.7554449000163, 2.3179413999896497, 4.191549799987115, 5.21178620000137, 1.9668372999876738, 1.6439324000384659, 1.733940900012385, 2.7342264999751933, 1.8784293999779038]",nahiiiii,1,2023-11-09_01h15.50.436,ISB,2022.2.5,60.08033944
0.7,1000,exp,3,10,46,5,452.5361077,453.5360225,453.5360225,453.5360225,space,0.2827471,454.5361125,455.0080622,455.0080622,455.0080622,455.0080622,600,47,"[6.817182699975092, 3.143667899945285, 4.750760700029787, 3.577181999979075, 3.723223099950701, 3.3756445999606512, 2.45114520000061, 2.0237693000235595, 2.9152677999809384, 2.8180047999485396, 5.929074199986644, 3.051912299997639, 3.201943600026425, 3.5581099999835715, 1.8640120000345632, 1.6615209000301547, 7.728283000004012, 2.2842576000257395, 2.6755254000308923, 8.385536200017668, 3.863071400031913, 2.8043928999686614, 4.7981068000080995, 5.50846670003375, 4.618328400014434, 4.961693499993999, 3.9213504000217654, 4.246808199968655, 4.475626000028569, 4.039820200006943, 3.1110553999897093, 2.838122100045439, 3.218078800011426, 2.1774313999922015, 7.1419427000219, 5.147285400016699, 4.918379199982155, 5.755438700027298, 2.3179365000105463, 4.191544999950565, 5.211781300022267, 1.9668319000047632, 1.6439260999904945, 1.7339359000325203, 2.7342210999922827, 1.8784216999774799, 1.6415514000109397]","[6.817192699993029, 3.143675400002394, 4.750766200013459, 3.577191499993205, 3.7232301999465562, 3.3756495999987237, 2.4511495000333525, 2.0237775000277907, 2.915276499988977, 2.818012599949725, 5.929079100023955, 3.051919599995017, 3.201949500013143, 3.558115799969528, 1.8640175000182353, 1.6615275000222027, 7.728288699989207, 2.284263400011696, 2.6755309000145644, 8.385540499992203, 3.8630920000141487, 2.8043980000074953, 4.798112299991772, 5.508472900022753, 4.618334300001152, 4.961700199986808, 3.9213540999917313, 4.246816899976693, 4.475631300010718, 4.039824899984524, 3.1110611999756657, 2.8381284000352025, 3.2180843999958597, 2.1774384999880567, 7.141964700014796, 5.147294899972621, 4.918385100027081, 5.7554449000163, 2.3179413999896497, 4.191549799987115, 5.21178620000137, 1.9668372999876738, 1.6439324000384659, 1.733940900012385, 2.7342264999751933, 1.8784293999779038, 1.6415550999809057]",nahiiiii,1,2023-11-09_01h15.50.436,ISB,2022.2.5,60.08033944
0.7,1000,exp,3,11,47,11,456.6523359,457.6527099,457.6527099,457.6527099,space,1.2179936,459.603086,460.077963,460.077963,460.077963,460.077963,800,48,"[6.817182699975092, 3.143667899945285, 4.750760700029787, 3.577181999979075, 3.723223099950701, 3.3756445999606512, 2.45114520000061, 2.0237693000235595, 2.9152677999809384, 2.8180047999485396, 5.929074199986644, 3.051912299997639, 3.201943600026425, 3.5581099999835715, 1.8640120000345632, 1.6615209000301547, 7.728283000004012, 2.2842576000257395, 2.6755254000308923, 8.385536200017668, 3.863071400031913, 2.8043928999686614, 4.7981068000080995, 5.50846670003375, 4.618328400014434, 4.961693499993999, 3.9213504000217654, 4.246808199968655, 4.475626000028569, 4.039820200006943, 3.1110553999897093, 2.838122100045439, 3.218078800011426, 2.1774313999922015, 7.1419427000219, 5.147285400016699, 4.918379199982155, 5.755438700027298, 2.3179365000105463, 4.191544999950565, 5.211781300022267, 1.9668319000047632, 1.6439260999904945, 1.7339359000325203, 2.7342210999922827, 1.8784216999774799, 1.6415514000109397, 1.4217477000202052]","[6.817192699993029, 3.143675400002394, 4.750766200013459, 3.577191499993205, 3.7232301999465562, 3.3756495999987237, 2.4511495000333525, 2.0237775000277907, 2.915276499988977, 2.818012599949725, 5.929079100023955, 3.051919599995017, 3.201949500013143, 3.558115799969528, 1.8640175000182353, 1.6615275000222027, 7.728288699989207, 2.284263400011696, 2.6755309000145644, 8.385540499992203, 3.8630920000141487, 2.8043980000074953, 4.798112299991772, 5.508472900022753, 4.618334300001152, 4.961700199986808, 3.9213540999917313, 4.246816899976693, 4.475631300010718, 4.039824899984524, 3.1110611999756657, 2.8381284000352025, 3.2180843999958597, 2.1774384999880567, 7.141964700014796, 5.147294899972621, 4.918385100027081, 5.7554449000163, 2.3179413999896497, 4.191549799987115, 5.21178620000137, 1.9668372999876738, 1.6439324000384659, 1.733940900012385, 2.7342264999751933, 1.8784293999779038, 1.6415550999809057, 1.4217558999662288]",nahiiiii,1,2023-11-09_01h15.50.436,ISB,2022.2.5,60.08033944
0.1,1000,exp,4,0,48,3,461.5028979,462.5031213,462.5031213,462.5031213,space,0.607928,463.2361658,463.7164872,463.7164872,463.7164872,463.7164872,400,49,"[6.817182699975092, 3.143667899945285, 4.750760700029787, 3.577181999979075, 3.723223099950701, 3.3756445999606512, 2.45114520000061, 2.0237693000235595, 2.9152677999809384, 2.8180047999485396, 5.929074199986644, 3.051912299997639, 3.201943600026425, 3.5581099999835715, 1.8640120000345632, 1.6615209000301547, 7.728283000004012, 2.2842576000257395, 2.6755254000308923, 8.385536200017668, 3.863071400031913, 2.8043928999686614, 4.7981068000080995, 5.50846670003375, 4.618328400014434, 4.961693499993999, 3.9213504000217654, 4.246808199968655, 4.475626000028569, 4.039820200006943, 3.1110553999897093, 2.838122100045439, 3.218078800011426, 2.1774313999922015, 7.1419427000219, 5.147285400016699, 4.918379199982155, 5.755438700027298, 2.3179365000105463, 4.191544999950565, 5.211781300022267, 1.9668319000047632, 1.6439260999904945, 1.7339359000325203, 2.7342210999922827, 1.8784216999774799, 1.6415514000109397, 1.4217477000202052, 2.981028900016099]","[6.817192699993029, 3.143675400002394, 4.750766200013459, 3.577191499993205, 3.7232301999465562, 3.3756495999987237, 2.4511495000333525, 2.0237775000277907, 2.915276499988977, 2.818012599949725, 5.929079100023955, 3.051919599995017, 3.201949500013143, 3.558115799969528, 1.8640175000182353, 1.6615275000222027, 7.728288699989207, 2.284263400011696, 2.6755309000145644, 8.385540499992203, 3.8630920000141487, 2.8043980000074953, 4.798112299991772, 5.508472900022753, 4.618334300001152, 4.961700199986808, 3.9213540999917313, 4.246816899976693, 4.475631300010718, 4.039824899984524, 3.1110611999756657, 2.8381284000352025, 3.2180843999958597, 2.1774384999880567, 7.141964700014796, 5.147294899972621, 4.918385100027081, 5.7554449000163, 2.3179413999896497, 4.191549799987115, 5.21178620000137, 1.9668372999876738, 1.6439324000384659, 1.733940900012385, 2.7342264999751933, 1.8784293999779038, 1.6415550999809057, 1.4217558999662288, 2.981034000054933]",nahiiiii,1,2023-11-09_01h15.50.436,ISB,2022.2.5,60.08033944
0.4,1000,exp,4,1,49,4,466.7027989,467.7031269,467.7031269,467.7031269,space,0.1869741,468.3195292,,468.7987869,468.7987869,468.7987869,700,50,"[6.817182699975092, 3.143667899945285, 4.750760700029787, 3.577181999979075, 3.723223099950701, 3.3756445999606512, 2.45114520000061, 2.0237693000235595, 2.9152677999809384, 2.8180047999485396, 5.929074199986644, 3.051912299997639, 3.201943600026425, 3.5581099999835715, 1.8640120000345632, 1.6615209000301547, 7.728283000004012, 2.2842576000257395, 2.6755254000308923, 8.385536200017668, 3.863071400031913, 2.8043928999686614, 4.7981068000080995, 5.50846670003375, 4.618328400014434, 4.961693499993999, 3.9213504000217654, 4.246808199968655, 4.475626000028569, 4.039820200006943, 3.1110553999897093, 2.838122100045439, 3.218078800011426, 2.1774313999922015, 7.1419427000219, 5.147285400016699, 4.918379199982155, 5.755438700027298, 2.3179365000105463, 4.191544999950565, 5.211781300022267, 1.9668319000047632, 1.6439260999904945, 1.7339359000325203, 2.7342210999922827, 1.8784216999774799, 1.6415514000109397, 1.4217477000202052, 2.981028900016099, 1.4319747999543324]","[6.817192699993029, 3.143675400002394, 4.750766200013459, 3.577191499993205, 3.7232301999465562, 3.3756495999987237, 2.4511495000333525, 2.0237775000277907, 2.915276499988977, 2.818012599949725, 5.929079100023955, 3.051919599995017, 3.201949500013143, 3.558115799969528, 1.8640175000182353, 1.6615275000222027, 7.728288699989207, 2.284263400011696, 2.6755309000145644, 8.385540499992203, 3.8630920000141487, 2.8043980000074953, 4.798112299991772, 5.508472900022753, 4.618334300001152, 4.961700199986808, 3.9213540999917313, 4.246816899976693, 4.475631300010718, 4.039824899984524, 3.1110611999756657, 2.8381284000352025, 3.2180843999958597, 2.1774384999880567, 7.141964700014796, 5.147294899972621, 4.918385100027081, 5.7554449000163, 2.3179413999896497, 4.191549799987115, 5.21178620000137, 1.9668372999876738, 1.6439324000384659, 1.733940900012385, 2.7342264999751933, 1.8784293999779038, 1.6415550999809057, 1.4217558999662288, 2.981034000054933, 1.4319796999916434]",nahiiiii,1,2023-11-09_01h15.50.436,ISB,2022.2.5,60.08033944
0.1,1000,exp,4,2,50,9,470.2362984,471.2364639,471.2364639,471.2364639,space,0.8939191,472.252968,,472.7278001,472.7278001,472.7278001,400,51,"[6.817182699975092, 3.143667899945285, 4.750760700029787, 3.577181999979075, 3.723223099950701, 3.3756445999606512, 2.45114520000061, 2.0237693000235595, 2.9152677999809384, 2.8180047999485396, 5.929074199986644, 3.051912299997639, 3.201943600026425, 3.5581099999835715, 1.8640120000345632, 1.6615209000301547, 7.728283000004012, 2.2842576000257395, 2.6755254000308923, 8.385536200017668, 3.863071400031913, 2.8043928999686614, 4.7981068000080995, 5.50846670003375, 4.618328400014434, 4.961693499993999, 3.9213504000217654, 4.246808199968655, 4.475626000028569, 4.039820200006943, 3.1110553999897093, 2.838122100045439, 3.218078800011426, 2.1774313999922015, 7.1419427000219, 5.147285400016699, 4.918379199982155, 5.755438700027298, 2.3179365000105463, 4.191544999950565, 5.211781300022267, 1.9668319000047632, 1.6439260999904945, 1.7339359000325203, 2.7342210999922827, 1.8784216999774799, 1.6415514000109397, 1.4217477000202052, 2.981028900016099, 1.4319747999543324, 6.171894300030544]","[6.817192699993029, 3.143675400002394, 4.750766200013459, 3.577191499993205, 3.7232301999465562, 3.3756495999987237, 2.4511495000333525, 2.0237775000277907, 2.915276499988977, 2.818012599949725, 5.929079100023955, 3.051919599995017, 3.201949500013143, 3.558115799969528, 1.8640175000182353, 1.6615275000222027, 7.728288699989207, 2.284263400011696, 2.6755309000145644, 8.385540499992203, 3.8630920000141487, 2.8043980000074953, 4.798112299991772, 5.508472900022753, 4.618334300001152, 4.961700199986808, 3.9213540999917313, 4.246816899976693, 4.475631300010718, 4.039824899984524, 3.1110611999756657, 2.8381284000352025, 3.2180843999958597, 2.1774384999880567, 7.141964700014796, 5.147294899972621, 4.918385100027081, 5.7554449000163, 2.3179413999896497, 4.191549799987115, 5.21178620000137, 1.9668372999876738, 1.6439324000384659, 1.733940900012385, 2.7342264999751933, 1.8784293999779038, 1.6415550999809057, 1.4217558999662288, 2.981034000054933, 1.4319796999916434, 6.1719016000279225]",nahiiiii,1,2023-11-09_01h15.50.436,ISB,2022.2.5,60.08033944
0.7,400,unexp,4,3,51,2,478.9031016,479.9030056,479.9030056,479.9030056,space,0.5522418,481.1862405,481.6574952,481.6574952,481.6574952,481.6574952,800,52,"[6.817182699975092, 3.143667899945285, 4.750760700029787, 3.577181999979075, 3.723223099950701, 3.3756445999606512, 2.45114520000061, 2.0237693000235595, 2.9152677999809384, 2.8180047999485396, 5.929074199986644, 3.051912299997639, 3.201943600026425, 3.5581099999835715, 1.8640120000345632, 1.6615209000301547, 7.728283000004012, 2.2842576000257395, 2.6755254000308923, 8.385536200017668, 3.863071400031913, 2.8043928999686614, 4.7981068000080995, 5.50846670003375, 4.618328400014434, 4.961693499993999, 3.9213504000217654, 4.246808199968655, 4.475626000028569, 4.039820200006943, 3.1110553999897093, 2.838122100045439, 3.218078800011426, 2.1774313999922015, 7.1419427000219, 5.147285400016699, 4.918379199982155, 5.755438700027298, 2.3179365000105463, 4.191544999950565, 5.211781300022267, 1.9668319000047632, 1.6439260999904945, 1.7339359000325203, 2.7342210999922827, 1.8784216999774799, 1.6415514000109397, 1.4217477000202052, 2.981028900016099, 1.4319747999543324, 6.171894300030544, 4.124897799978498]","[6.817192699993029, 3.143675400002394, 4.750766200013459, 3.577191499993205, 3.7232301999465562, 3.3756495999987237, 2.4511495000333525, 2.0237775000277907, 2.915276499988977, 2.818012599949725, 5.929079100023955, 3.051919599995017, 3.201949500013143, 3.558115799969528, 1.8640175000182353, 1.6615275000222027, 7.728288699989207, 2.284263400011696, 2.6755309000145644, 8.385540499992203, 3.8630920000141487, 2.8043980000074953, 4.798112299991772, 5.508472900022753, 4.618334300001152, 4.961700199986808, 3.9213540999917313, 4.246816899976693, 4.475631300010718, 4.039824899984524, 3.1110611999756657, 2.8381284000352025, 3.2180843999958597, 2.1774384999880567, 7.141964700014796, 5.147294899972621, 4.918385100027081, 5.7554449000163, 2.3179413999896497, 4.191549799987115, 5.21178620000137, 1.9668372999876738, 1.6439324000384659, 1.733940900012385, 2.7342264999751933, 1.8784293999779038, 1.6415550999809057, 1.4217558999662288, 2.981034000054933, 1.4319796999916434, 6.1719016000279225, 4.1249030999606475]",nahiiiii,1,2023-11-09_01h15.50.436,ISB,2022.2.5,60.08033944
0.1,1000,exp,4,4,52,6,485.7864048,486.7865851,486.7865851,486.7865851,space,5.8448434,492.7529651,493.2284115,493.2284115,493.2284115,493.2284115,600,53,"[6.817182699975092, 3.143667899945285, 4.750760700029787, 3.577181999979075, 3.723223099950701, 3.3756445999606512, 2.45114520000061, 2.0237693000235595, 2.9152677999809384, 2.8180047999485396, 5.929074199986644, 3.051912299997639, 3.201943600026425, 3.5581099999835715, 1.8640120000345632, 1.6615209000301547, 7.728283000004012, 2.2842576000257395, 2.6755254000308923, 8.385536200017668, 3.863071400031913, 2.8043928999686614, 4.7981068000080995, 5.50846670003375, 4.618328400014434, 4.961693499993999, 3.9213504000217654, 4.246808199968655, 4.475626000028569, 4.039820200006943, 3.1110553999897093, 2.838122100045439, 3.218078800011426, 2.1774313999922015, 7.1419427000219, 5.147285400016699, 4.918379199982155, 5.755438700027298, 2.3179365000105463, 4.191544999950565, 5.211781300022267, 1.9668319000047632, 1.6439260999904945, 1.7339359000325203, 2.7342210999922827, 1.8784216999774799, 1.6415514000109397, 1.4217477000202052, 2.981028900016099, 1.4319747999543324, 6.171894300030544, 4.124897799978498, 1.8214599000057206]","[6.817192699993029, 3.143675400002394, 4.750766200013459, 3.577191499993205, 3.7232301999465562, 3.3756495999987237, 2.4511495000333525, 2.0237775000277907, 2.915276499988977, 2.818012599949725, 5.929079100023955, 3.051919599995017, 3.201949500013143, 3.558115799969528, 1.8640175000182353, 1.6615275000222027, 7.728288699989207, 2.284263400011696, 2.6755309000145644, 8.385540499992203, 3.8630920000141487, 2.8043980000074953, 4.798112299991772, 5.508472900022753, 4.618334300001152, 4.961700199986808, 3.9213540999917313, 4.246816899976693, 4.475631300010718, 4.039824899984524, 3.1110611999756657, 2.8381284000352025, 3.2180843999958597, 2.1774384999880567, 7.141964700014796, 5.147294899972621, 4.918385100027081, 5.7554449000163, 2.3179413999896497, 4.191549799987115, 5.21178620000137, 1.9668372999876738, 1.6439324000384659, 1.733940900012385, 2.7342264999751933, 1.8784293999779038, 1.6415550999809057, 1.4217558999662288, 2.981034000054933, 1.4319796999916434, 6.1719016000279225, 4.1249030999606475, 1.8214646000415087]",nahiiiii,1,2023-11-09_01h15.50.436,ISB,2022.2.5,60.08033944
0.4,400,unexp,4,5,53,1,495.0529053,496.0531183,496.0531183,496.0531183,space,0.389412,496.8697432,,497.3513548,497.3513548,497.3513548,700,54,"[6.817182699975092, 3.143667899945285, 4.750760700029787, 3.577181999979075, 3.723223099950701, 3.3756445999606512, 2.45114520000061, 2.0237693000235595, 2.9152677999809384, 2.8180047999485396, 5.929074199986644, 3.051912299997639, 3.201943600026425, 3.5581099999835715, 1.8640120000345632, 1.6615209000301547, 7.728283000004012, 2.2842576000257395, 2.6755254000308923, 8.385536200017668, 3.863071400031913, 2.8043928999686614, 4.7981068000080995, 5.50846670003375, 4.618328400014434, 4.961693499993999, 3.9213504000217654, 4.246808199968655, 4.475626000028569, 4.039820200006943, 3.1110553999897093, 2.838122100045439, 3.218078800011426, 2.1774313999922015, 7.1419427000219, 5.147285400016699, 4.918379199982155, 5.755438700027298, 2.3179365000105463, 4.191544999950565, 5.211781300022267, 1.9668319000047632, 1.6439260999904945, 1.7339359000325203, 2.7342210999922827, 1.8784216999774799, 1.6415514000109397, 1.4217477000202052, 2.981028900016099, 1.4319747999543324, 6.171894300030544, 4.124897799978498, 1.8214599000057206, 3.0170968999736942]","[6.817192699993029, 3.143675400002394, 4.750766200013459, 3.577191499993205, 3.7232301999465562, 3.3756495999987237, 2.4511495000333525, 2.0237775000277907, 2.915276499988977, 2.818012599949725, 5.929079100023955, 3.051919599995017, 3.201949500013143, 3.558115799969528, 1.8640175000182353, 1.6615275000222027, 7.728288699989207, 2.284263400011696, 2.6755309000145644, 8.385540499992203, 3.8630920000141487, 2.8043980000074953, 4.798112299991772, 5.508472900022753, 4.618334300001152, 4.961700199986808, 3.9213540999917313, 4.246816899976693, 4.475631300010718, 4.039824899984524, 3.1110611999756657, 2.8381284000352025, 3.2180843999958597, 2.1774384999880567, 7.141964700014796, 5.147294899972621, 4.918385100027081, 5.7554449000163, 2.3179413999896497, 4.191549799987115, 5.21178620000137, 1.9668372999876738, 1.6439324000384659, 1.733940900012385, 2.7342264999751933, 1.8784293999779038, 1.6415550999809057, 1.4217558999662288, 2.981034000054933, 1.4319796999916434, 6.1719016000279225, 4.1249030999606475, 1.8214646000415087, 3.0171026999596506]",nahiiiii,1,2023-11-09_01h15.50.436,ISB,2022.2.5,60.08033944
0.1,400,unexp,4,6,54,0,500.3695642,501.3700157,501.3700157,501.3700157,space,1.3903563,502.8864311,503.3684887,503.3684887,503.3684887,503.3684887,750,55,"[6.817182699975092, 3.143667899945285, 4.750760700029787, 3.577181999979075, 3.723223099950701, 3.3756445999606512, 2.45114520000061, 2.0237693000235595, 2.9152677999809384, 2.8180047999485396, 5.929074199986644, 3.051912299997639, 3.201943600026425, 3.5581099999835715, 1.8640120000345632, 1.6615209000301547, 7.728283000004012, 2.2842576000257395, 2.6755254000308923, 8.385536200017668, 3.863071400031913, 2.8043928999686614, 4.7981068000080995, 5.50846670003375, 4.618328400014434, 4.961693499993999, 3.9213504000217654, 4.246808199968655, 4.475626000028569, 4.039820200006943, 3.1110553999897093, 2.838122100045439, 3.218078800011426, 2.1774313999922015, 7.1419427000219, 5.147285400016699, 4.918379199982155, 5.755438700027298, 2.3179365000105463, 4.191544999950565, 5.211781300022267, 1.9668319000047632, 1.6439260999904945, 1.7339359000325203, 2.7342210999922827, 1.8784216999774799, 1.6415514000109397, 1.4217477000202052, 2.981028900016099, 1.4319747999543324, 6.171894300030544, 4.124897799978498, 1.8214599000057206, 3.0170968999736942, 4.815107200003695]","[6.817192699993029, 3.143675400002394, 4.750766200013459, 3.577191499993205, 3.7232301999465562, 3.3756495999987237, 2.4511495000333525, 2.0237775000277907, 2.915276499988977, 2.818012599949725, 5.929079100023955, 3.051919599995017, 3.201949500013143, 3.558115799969528, 1.8640175000182353, 1.6615275000222027, 7.728288699989207, 2.284263400011696, 2.6755309000145644, 8.385540499992203, 3.8630920000141487, 2.8043980000074953, 4.798112299991772, 5.508472900022753, 4.618334300001152, 4.961700199986808, 3.9213540999917313, 4.246816899976693, 4.475631300010718, 4.039824899984524, 3.1110611999756657, 2.8381284000352025, 3.2180843999958597, 2.1774384999880567, 7.141964700014796, 5.147294899972621, 4.918385100027081, 5.7554449000163, 2.3179413999896497, 4.191549799987115, 5.21178620000137, 1.9668372999876738, 1.6439324000384659, 1.733940900012385, 2.7342264999751933, 1.8784293999779038, 1.6415550999809057, 1.4217558999662288, 2.981034000054933, 1.4319796999916434, 6.1719016000279225, 4.1249030999606475, 1.8214646000415087, 3.0171026999596506, 4.815112800046336]",nahiiiii,1,2023-11-09_01h15.50.436,ISB,2022.2.5,60.08033944
0.4,1000,exp,4,7,55,10,508.186364,509.186481,509.186481,509.186481,space,3.6647794,513.2695414,,513.7504957,513.7504957,513.7504957,500,56,"[6.817182699975092, 3.143667899945285, 4.750760700029787, 3.577181999979075, 3.723223099950701, 3.3756445999606512, 2.45114520000061, 2.0237693000235595, 2.9152677999809384, 2.8180047999485396, 5.929074199986644, 3.051912299997639, 3.201943600026425, 3.5581099999835715, 1.8640120000345632, 1.6615209000301547, 7.728283000004012, 2.2842576000257395, 2.6755254000308923, 8.385536200017668, 3.863071400031913, 2.8043928999686614, 4.7981068000080995, 5.50846670003375, 4.618328400014434, 4.961693499993999, 3.9213504000217654, 4.246808199968655, 4.475626000028569, 4.039820200006943, 3.1110553999897093, 2.838122100045439, 3.218078800011426, 2.1774313999922015, 7.1419427000219, 5.147285400016699, 4.918379199982155, 5.755438700027298, 2.3179365000105463, 4.191544999950565, 5.211781300022267, 1.9668319000047632, 1.6439260999904945, 1.7339359000325203, 2.7342210999922827, 1.8784216999774799, 1.6415514000109397, 1.4217477000202052, 2.981028900016099, 1.4319747999543324, 6.171894300030544, 4.124897799978498, 1.8214599000057206, 3.0170968999736942, 4.815107200003695, 3.4106649000314064]","[6.817192699993029, 3.143675400002394, 4.750766200013459, 3.577191499993205, 3.7232301999465562, 3.3756495999987237, 2.4511495000333525, 2.0237775000277907, 2.915276499988977, 2.818012599949725, 5.929079100023955, 3.051919599995017, 3.201949500013143, 3.558115799969528, 1.8640175000182353, 1.6615275000222027, 7.728288699989207, 2.284263400011696, 2.6755309000145644, 8.385540499992203, 3.8630920000141487, 2.8043980000074953, 4.798112299991772, 5.508472900022753, 4.618334300001152, 4.961700199986808, 3.9213540999917313, 4.246816899976693, 4.475631300010718, 4.039824899984524, 3.1110611999756657, 2.8381284000352025, 3.2180843999958597, 2.1774384999880567, 7.141964700014796, 5.147294899972621, 4.918385100027081, 5.7554449000163, 2.3179413999896497, 4.191549799987115, 5.21178620000137, 1.9668372999876738, 1.6439324000384659, 1.733940900012385, 2.7342264999751933, 1.8784293999779038, 1.6415550999809057, 1.4217558999662288, 2.981034000054933, 1.4319796999916434, 6.1719016000279225, 4.1249030999606475, 1.8214646000415087, 3.0171026999596506, 4.815112800046336, 3.41066980001051]",nahiiiii,1,2023-11-09_01h15.50.436,ISB,2022.2.5,60.08033944
0.7,1000,exp,4,8,56,11,517.169543,518.1696408,518.1696408,518.1696408,space,0.3069083,519.2031264,,519.6828696,519.6828696,519.6828696,800,57,"[6.817182699975092, 3.143667899945285, 4.750760700029787, 3.577181999979075, 3.723223099950701, 3.3756445999606512, 2.45114520000061, 2.0237693000235595, 2.9152677999809384, 2.8180047999485396, 5.929074199986644, 3.051912299997639, 3.201943600026425, 3.5581099999835715, 1.8640120000345632, 1.6615209000301547, 7.728283000004012, 2.2842576000257395, 2.6755254000308923, 8.385536200017668, 3.863071400031913, 2.8043928999686614, 4.7981068000080995, 5.50846670003375, 4.618328400014434, 4.961693499993999, 3.9213504000217654, 4.246808199968655, 4.475626000028569, 4.039820200006943, 3.1110553999897093, 2.838122100045439, 3.218078800011426, 2.1774313999922015, 7.1419427000219, 5.147285400016699, 4.918379199982155, 5.755438700027298, 2.3179365000105463, 4.191544999950565, 5.211781300022267, 1.9668319000047632, 1.6439260999904945, 1.7339359000325203, 2.7342210999922827, 1.8784216999774799, 1.6415514000109397, 1.4217477000202052, 2.981028900016099, 1.4319747999543324, 6.171894300030544, 4.124897799978498, 1.8214599000057206, 3.0170968999736942, 4.815107200003695, 3.4106649000314064, 2.1653519999817945]","[6.817192699993029, 3.143675400002394, 4.750766200013459, 3.577191499993205, 3.7232301999465562, 3.3756495999987237, 2.4511495000333525, 2.0237775000277907, 2.915276499988977, 2.818012599949725, 5.929079100023955, 3.051919599995017, 3.201949500013143, 3.558115799969528, 1.8640175000182353, 1.6615275000222027, 7.728288699989207, 2.284263400011696, 2.6755309000145644, 8.385540499992203, 3.8630920000141487, 2.8043980000074953, 4.798112299991772, 5.508472900022753, 4.618334300001152, 4.961700199986808, 3.9213540999917313, 4.246816899976693, 4.475631300010718, 4.039824899984524, 3.1110611999756657, 2.8381284000352025, 3.2180843999958597, 2.1774384999880567, 7.141964700014796, 5.147294899972621, 4.918385100027081, 5.7554449000163, 2.3179413999896497, 4.191549799987115, 5.21178620000137, 1.9668372999876738, 1.6439324000384659, 1.733940900012385, 2.7342264999751933, 1.8784293999779038, 1.6415550999809057, 1.4217558999662288, 2.981034000054933, 1.4319796999916434, 6.1719016000279225, 4.1249030999606475, 1.8214646000415087, 3.0171026999596506, 4.815112800046336, 3.41066980001051, 2.1653571000206284]",nahiiiii,1,2023-11-09_01h15.50.436,ISB,2022.2.5,60.08033944
0.4,1000,exp,4,9,57,7,521.8531763,522.8531934,522.8531934,522.8531934,space,0.3355707,523.6196896,,524.1056207,524.1056207,524.1056207,550,58,"[6.817182699975092, 3.143667899945285, 4.750760700029787, 3.577181999979075, 3.723223099950701, 3.3756445999606512, 2.45114520000061, 2.0237693000235595, 2.9152677999809384, 2.8180047999485396, 5.929074199986644, 3.051912299997639, 3.201943600026425, 3.5581099999835715, 1.8640120000345632, 1.6615209000301547, 7.728283000004012, 2.2842576000257395, 2.6755254000308923, 8.385536200017668, 3.863071400031913, 2.8043928999686614, 4.7981068000080995, 5.50846670003375, 4.618328400014434, 4.961693499993999, 3.9213504000217654, 4.246808199968655, 4.475626000028569, 4.039820200006943, 3.1110553999897093, 2.838122100045439, 3.218078800011426, 2.1774313999922015, 7.1419427000219, 5.147285400016699, 4.918379199982155, 5.755438700027298, 2.3179365000105463, 4.191544999950565, 5.211781300022267, 1.9668319000047632, 1.6439260999904945, 1.7339359000325203, 2.7342210999922827, 1.8784216999774799, 1.6415514000109397, 1.4217477000202052, 2.981028900016099, 1.4319747999543324, 6.171894300030544, 4.124897799978498, 1.8214599000057206, 3.0170968999736942, 4.815107200003695, 3.4106649000314064, 2.1653519999817945, 5.195337400014978]","[6.817192699993029, 3.143675400002394, 4.750766200013459, 3.577191499993205, 3.7232301999465562, 3.3756495999987237, 2.4511495000333525, 2.0237775000277907, 2.915276499988977, 2.818012599949725, 5.929079100023955, 3.051919599995017, 3.201949500013143, 3.558115799969528, 1.8640175000182353, 1.6615275000222027, 7.728288699989207, 2.284263400011696, 2.6755309000145644, 8.385540499992203, 3.8630920000141487, 2.8043980000074953, 4.798112299991772, 5.508472900022753, 4.618334300001152, 4.961700199986808, 3.9213540999917313, 4.246816899976693, 4.475631300010718, 4.039824899984524, 3.1110611999756657, 2.8381284000352025, 3.2180843999958597, 2.1774384999880567, 7.141964700014796, 5.147294899972621, 4.918385100027081, 5.7554449000163, 2.3179413999896497, 4.191549799987115, 5.21178620000137, 1.9668372999876738, 1.6439324000384659, 1.733940900012385, 2.7342264999751933, 1.8784293999779038, 1.6415550999809057, 1.4217558999662288, 2.981034000054933, 1.4319796999916434, 6.1719016000279225, 4.1249030999606475, 1.8214646000415087, 3.0171026999596506, 4.815112800046336, 3.41066980001051, 2.1653571000206284, 5.1953427999978885]",nahiiiii,1,2023-11-09_01h15.50.436,ISB,2022.2.5,60.08033944
0.7,1000,exp,4,10,58,8,529.3027183,530.3031987,530.3031987,530.3031987,space,0.3587392,531.3864853,531.8633355,531.8633355,531.8633355,531.8633355,900,59,"[6.817182699975092, 3.143667899945285, 4.750760700029787, 3.577181999979075, 3.723223099950701, 3.3756445999606512, 2.45114520000061, 2.0237693000235595, 2.9152677999809384, 2.8180047999485396, 5.929074199986644, 3.051912299997639, 3.201943600026425, 3.5581099999835715, 1.8640120000345632, 1.6615209000301547, 7.728283000004012, 2.2842576000257395, 2.6755254000308923, 8.385536200017668, 3.863071400031913, 2.8043928999686614, 4.7981068000080995, 5.50846670003375, 4.618328400014434, 4.961693499993999, 3.9213504000217654, 4.246808199968655, 4.475626000028569, 4.039820200006943, 3.1110553999897093, 2.838122100045439, 3.218078800011426, 2.1774313999922015, 7.1419427000219, 5.147285400016699, 4.918379199982155, 5.755438700027298, 2.3179365000105463, 4.191544999950565, 5.211781300022267, 1.9668319000047632, 1.6439260999904945, 1.7339359000325203, 2.7342210999922827, 1.8784216999774799, 1.6415514000109397, 1.4217477000202052, 2.981028900016099, 1.4319747999543324, 6.171894300030544, 4.124897799978498, 1.8214599000057206, 3.0170968999736942, 4.815107200003695, 3.4106649000314064, 2.1653519999817945, 5.195337400014978, 1.6192613000166602]","[6.817192699993029, 3.143675400002394, 4.750766200013459, 3.577191499993205, 3.7232301999465562, 3.3756495999987237, 2.4511495000333525, 2.0237775000277907, 2.915276499988977, 2.818012599949725, 5.929079100023955, 3.051919599995017, 3.201949500013143, 3.558115799969528, 1.8640175000182353, 1.6615275000222027, 7.728288699989207, 2.284263400011696, 2.6755309000145644, 8.385540499992203, 3.8630920000141487, 2.8043980000074953, 4.798112299991772, 5.508472900022753, 4.618334300001152, 4.961700199986808, 3.9213540999917313, 4.246816899976693, 4.475631300010718, 4.039824899984524, 3.1110611999756657, 2.8381284000352025, 3.2180843999958597, 2.1774384999880567, 7.141964700014796, 5.147294899972621, 4.918385100027081, 5.7554449000163, 2.3179413999896497, 4.191549799987115, 5.21178620000137, 1.9668372999876738, 1.6439324000384659, 1.733940900012385, 2.7342264999751933, 1.8784293999779038, 1.6415550999809057, 1.4217558999662288, 2.981034000054933, 1.4319796999916434, 6.1719016000279225, 4.1249030999606475, 1.8214646000415087, 3.0171026999596506, 4.815112800046336, 3.41066980001051, 2.1653571000206284, 5.1953427999978885, 1.6192680000094697]",nahiiiii,1,2023-11-09_01h15.50.436,ISB,2022.2.5,60.08033944
0.7,1000,exp,4,11,59,5,533.4864614,534.4863595,534.4863595,534.4863595,space,0.0545269,535.2698245,,535.7515633,535.7515633,535.7515633,600,60,"[6.817182699975092, 3.143667899945285, 4.750760700029787, 3.577181999979075, 3.723223099950701, 3.3756445999606512, 2.45114520000061, 2.0237693000235595, 2.9152677999809384, 2.8180047999485396, 5.929074199986644, 3.051912299997639, 3.201943600026425, 3.5581099999835715, 1.8640120000345632, 1.6615209000301547, 7.728283000004012, 2.2842576000257395, 2.6755254000308923, 8.385536200017668, 3.863071400031913, 2.8043928999686614, 4.7981068000080995, 5.50846670003375, 4.618328400014434, 4.961693499993999, 3.9213504000217654, 4.246808199968655, 4.475626000028569, 4.039820200006943, 3.1110553999897093, 2.838122100045439, 3.218078800011426, 2.1774313999922015, 7.1419427000219, 5.147285400016699, 4.918379199982155, 5.755438700027298, 2.3179365000105463, 4.191544999950565, 5.211781300022267, 1.9668319000047632, 1.6439260999904945, 1.7339359000325203, 2.7342210999922827, 1.8784216999774799, 1.6415514000109397, 1.4217477000202052, 2.981028900016099, 1.4319747999543324, 6.171894300030544, 4.124897799978498, 1.8214599000057206, 3.0170968999736942, 4.815107200003695, 3.4106649000314064, 2.1653519999817945, 5.195337400014978, 1.6192613000166602, 3.6643450999981724]","[6.817192699993029, 3.143675400002394, 4.750766200013459, 3.577191499993205, 3.7232301999465562, 3.3756495999987237, 2.4511495000333525, 2.0237775000277907, 2.915276499988977, 2.818012599949725, 5.929079100023955, 3.051919599995017, 3.201949500013143, 3.558115799969528, 1.8640175000182353, 1.6615275000222027, 7.728288699989207, 2.284263400011696, 2.6755309000145644, 8.385540499992203, 3.8630920000141487, 2.8043980000074953, 4.798112299991772, 5.508472900022753, 4.618334300001152, 4.961700199986808, 3.9213540999917313, 4.246816899976693, 4.475631300010718, 4.039824899984524, 3.1110611999756657, 2.8381284000352025, 3.2180843999958597, 2.1774384999880567, 7.141964700014796, 5.147294899972621, 4.918385100027081, 5.7554449000163, 2.3179413999896497, 4.191549799987115, 5.21178620000137, 1.9668372999876738, 1.6439324000384659, 1.733940900012385, 2.7342264999751933, 1.8784293999779038, 1.6415550999809057, 1.4217558999662288, 2.981034000054933, 1.4319796999916434, 6.1719016000279225, 4.1249030999606475, 1.8214646000415087, 3.0171026999596506, 4.815112800046336, 3.41066980001051, 2.1653571000206284, 5.1953427999978885, 1.6192680000094697, 3.6643499999772757]",nahiiiii,1,2023-11-09_01h15.50.436,ISB,2022.2.5,60.08033944
0.7,1000,exp,5,0,60,8,539.4194828,540.4199508,540.4199508,540.4199508,space,0.6422721,541.7864863,542.2660282,542.2660282,542.2660282,542.2660282,700,61,"[6.817182699975092, 3.143667899945285, 4.750760700029787, 3.577181999979075, 3.723223099950701, 3.3756445999606512, 2.45114520000061, 2.0237693000235595, 2.9152677999809384, 2.8180047999485396, 5.929074199986644, 3.051912299997639, 3.201943600026425, 3.5581099999835715, 1.8640120000345632, 1.6615209000301547, 7.728283000004012, 2.2842576000257395, 2.6755254000308923, 8.385536200017668, 3.863071400031913, 2.8043928999686614, 4.7981068000080995, 5.50846670003375, 4.618328400014434, 4.961693499993999, 3.9213504000217654, 4.246808199968655, 4.475626000028569, 4.039820200006943, 3.1110553999897093, 2.838122100045439, 3.218078800011426, 2.1774313999922015, 7.1419427000219, 5.147285400016699, 4.918379199982155, 5.755438700027298, 2.3179365000105463, 4.191544999950565, 5.211781300022267, 1.9668319000047632, 1.6439260999904945, 1.7339359000325203, 2.7342210999922827, 1.8784216999774799, 1.6415514000109397, 1.4217477000202052, 2.981028900016099, 1.4319747999543324, 6.171894300030544, 4.124897799978498, 1.8214599000057206, 3.0170968999736942, 4.815107200003695, 3.4106649000314064, 2.1653519999817945, 5.195337400014978, 1.6192613000166602, 3.6643450999981724, 3.48448709998047]","[6.817192699993029, 3.143675400002394, 4.750766200013459, 3.577191499993205, 3.7232301999465562, 3.3756495999987237, 2.4511495000333525, 2.0237775000277907, 2.915276499988977, 2.818012599949725, 5.929079100023955, 3.051919599995017, 3.201949500013143, 3.558115799969528, 1.8640175000182353, 1.6615275000222027, 7.728288699989207, 2.284263400011696, 2.6755309000145644, 8.385540499992203, 3.8630920000141487, 2.8043980000074953, 4.798112299991772, 5.508472900022753, 4.618334300001152, 4.961700199986808, 3.9213540999917313, 4.246816899976693, 4.475631300010718, 4.039824899984524, 3.1110611999756657, 2.8381284000352025, 3.2180843999958597, 2.1774384999880567, 7.141964700014796, 5.147294899972621, 4.918385100027081, 5.7554449000163, 2.3179413999896497, 4.191549799987115, 5.21178620000137, 1.9668372999876738, 1.6439324000384659, 1.733940900012385, 2.7342264999751933, 1.8784293999779038, 1.6415550999809057, 1.4217558999662288, 2.981034000054933, 1.4319796999916434, 6.1719016000279225, 4.1249030999606475, 1.8214646000415087, 3.0171026999596506, 4.815112800046336, 3.41066980001051, 2.1653571000206284, 5.1953427999978885, 1.6192680000094697, 3.6643499999772757, 3.4844927999656647]",nahiiiii,1,2023-11-09_01h15.50.436,ISB,2022.2.5,60.08033944
0.4,1000,exp,5,1,61,10,545.7528483,546.7531302,546.7531302,546.7531302,space,0.7383532,547.9197591,548.400693,548.400693,548.400693,548.400693,500,62,"[6.817182699975092, 3.143667899945285, 4.750760700029787, 3.577181999979075, 3.723223099950701, 3.3756445999606512, 2.45114520000061, 2.0237693000235595, 2.9152677999809384, 2.8180047999485396, 5.929074199986644, 3.051912299997639, 3.201943600026425, 3.5581099999835715, 1.8640120000345632, 1.6615209000301547, 7.728283000004012, 2.2842576000257395, 2.6755254000308923, 8.385536200017668, 3.863071400031913, 2.8043928999686614, 4.7981068000080995, 5.50846670003375, 4.618328400014434, 4.961693499993999, 3.9213504000217654, 4.246808199968655, 4.475626000028569, 4.039820200006943, 3.1110553999897093, 2.838122100045439, 3.218078800011426, 2.1774313999922015, 7.1419427000219, 5.147285400016699, 4.918379199982155, 5.755438700027298, 2.3179365000105463, 4.191544999950565, 5.211781300022267, 1.9668319000047632, 1.6439260999904945, 1.7339359000325203, 2.7342210999922827, 1.8784216999774799, 1.6415514000109397, 1.4217477000202052, 2.981028900016099, 1.4319747999543324, 6.171894300030544, 4.124897799978498, 1.8214599000057206, 3.0170968999736942, 4.815107200003695, 3.4106649000314064, 2.1653519999817945, 5.195337400014978, 1.6192613000166602, 3.6643450999981724, 3.48448709998047, 3.784057100012433]","[6.817192699993029, 3.143675400002394, 4.750766200013459, 3.577191499993205, 3.7232301999465562, 3.3756495999987237, 2.4511495000333525, 2.0237775000277907, 2.915276499988977, 2.818012599949725, 5.929079100023955, 3.051919599995017, 3.201949500013143, 3.558115799969528, 1.8640175000182353, 1.6615275000222027, 7.728288699989207, 2.284263400011696, 2.6755309000145644, 8.385540499992203, 3.8630920000141487, 2.8043980000074953, 4.798112299991772, 5.508472900022753, 4.618334300001152, 4.961700199986808, 3.9213540999917313, 4.246816899976693, 4.475631300010718, 4.039824899984524, 3.1110611999756657, 2.8381284000352025, 3.2180843999958597, 2.1774384999880567, 7.141964700014796, 5.147294899972621, 4.918385100027081, 5.7554449000163, 2.3179413999896497, 4.191549799987115, 5.21178620000137, 1.9668372999876738, 1.6439324000384659, 1.733940900012385, 2.7342264999751933, 1.8784293999779038, 1.6415550999809057, 1.4217558999662288, 2.981034000054933, 1.4319796999916434, 6.1719016000279225, 4.1249030999606475, 1.8214646000415087, 3.0171026999596506, 4.815112800046336, 3.41066980001051, 2.1653571000206284, 5.1953427999978885, 1.6192680000094697, 3.6643499999772757, 3.4844927999656647, 3.7840629999991506]",nahiiiii,1,2023-11-09_01h15.50.436,ISB,2022.2.5,60.08033944
0.1,400,unexp,5,2,62,0,552.1866978,553.18657,553.18657,553.18657,space,0.6035801,553.9199541,554.4066906,554.4066906,554.4066906,554.4066906,700,63,"[6.817182699975092, 3.143667899945285, 4.750760700029787, 3.577181999979075, 3.723223099950701, 3.3756445999606512, 2.45114520000061, 2.0237693000235595, 2.9152677999809384, 2.8180047999485396, 5.929074199986644, 3.051912299997639, 3.201943600026425, 3.5581099999835715, 1.8640120000345632, 1.6615209000301547, 7.728283000004012, 2.2842576000257395, 2.6755254000308923, 8.385536200017668, 3.863071400031913, 2.8043928999686614, 4.7981068000080995, 5.50846670003375, 4.618328400014434, 4.961693499993999, 3.9213504000217654, 4.246808199968655, 4.475626000028569, 4.039820200006943, 3.1110553999897093, 2.838122100045439, 3.218078800011426, 2.1774313999922015, 7.1419427000219, 5.147285400016699, 4.918379199982155, 5.755438700027298, 2.3179365000105463, 4.191544999950565, 5.211781300022267, 1.9668319000047632, 1.6439260999904945, 1.7339359000325203, 2.7342210999922827, 1.8784216999774799, 1.6415514000109397, 1.4217477000202052, 2.981028900016099, 1.4319747999543324, 6.171894300030544, 4.124897799978498, 1.8214599000057206, 3.0170968999736942, 4.815107200003695, 3.4106649000314064, 2.1653519999817945, 5.195337400014978, 1.6192613000166602, 3.6643450999981724, 3.48448709998047, 3.784057100012433, 2.7103176999953575]","[6.817192699993029, 3.143675400002394, 4.750766200013459, 3.577191499993205, 3.7232301999465562, 3.3756495999987237, 2.4511495000333525, 2.0237775000277907, 2.915276499988977, 2.818012599949725, 5.929079100023955, 3.051919599995017, 3.201949500013143, 3.558115799969528, 1.8640175000182353, 1.6615275000222027, 7.728288699989207, 2.284263400011696, 2.6755309000145644, 8.385540499992203, 3.8630920000141487, 2.8043980000074953, 4.798112299991772, 5.508472900022753, 4.618334300001152, 4.961700199986808, 3.9213540999917313, 4.246816899976693, 4.475631300010718, 4.039824899984524, 3.1110611999756657, 2.8381284000352025, 3.2180843999958597, 2.1774384999880567, 7.141964700014796, 5.147294899972621, 4.918385100027081, 5.7554449000163, 2.3179413999896497, 4.191549799987115, 5.21178620000137, 1.9668372999876738, 1.6439324000384659, 1.733940900012385, 2.7342264999751933, 1.8784293999779038, 1.6415550999809057, 1.4217558999662288, 2.981034000054933, 1.4319796999916434, 6.1719016000279225, 4.1249030999606475, 1.8214646000415087, 3.0171026999596506, 4.815112800046336, 3.41066980001051, 2.1653571000206284, 5.1953427999978885, 1.6192680000094697, 3.6643499999772757, 3.4844927999656647, 3.7840629999991506, 2.7103242999874055]",nahiiiii,1,2023-11-09_01h15.50.436,ISB,2022.2.5,60.08033944
0.1,1000,exp,5,3,63,9,557.1199021,558.1198144,558.1198144,558.1198144,space,1.946853,560.1869436,,560.6593492,560.6593492,560.6593492,600,64,"[6.817182699975092, 3.143667899945285, 4.750760700029787, 3.577181999979075, 3.723223099950701, 3.3756445999606512, 2.45114520000061, 2.0237693000235595, 2.9152677999809384, 2.8180047999485396, 5.929074199986644, 3.051912299997639, 3.201943600026425, 3.5581099999835715, 1.8640120000345632, 1.6615209000301547, 7.728283000004012, 2.2842576000257395, 2.6755254000308923, 8.385536200017668, 3.863071400031913, 2.8043928999686614, 4.7981068000080995, 5.50846670003375, 4.618328400014434, 4.961693499993999, 3.9213504000217654, 4.246808199968655, 4.475626000028569, 4.039820200006943, 3.1110553999897093, 2.838122100045439, 3.218078800011426, 2.1774313999922015, 7.1419427000219, 5.147285400016699, 4.918379199982155, 5.755438700027298, 2.3179365000105463, 4.191544999950565, 5.211781300022267, 1.9668319000047632, 1.6439260999904945, 1.7339359000325203, 2.7342210999922827, 1.8784216999774799, 1.6415514000109397, 1.4217477000202052, 2.981028900016099, 1.4319747999543324, 6.171894300030544, 4.124897799978498, 1.8214599000057206, 3.0170968999736942, 4.815107200003695, 3.4106649000314064, 2.1653519999817945, 5.195337400014978, 1.6192613000166602, 3.6643450999981724, 3.48448709998047, 3.784057100012433, 2.7103176999953575, 4.174932199995965]","[6.817192699993029, 3.143675400002394, 4.750766200013459, 3.577191499993205, 3.7232301999465562, 3.3756495999987237, 2.4511495000333525, 2.0237775000277907, 2.915276499988977, 2.818012599949725, 5.929079100023955, 3.051919599995017, 3.201949500013143, 3.558115799969528, 1.8640175000182353, 1.6615275000222027, 7.728288699989207, 2.284263400011696, 2.6755309000145644, 8.385540499992203, 3.8630920000141487, 2.8043980000074953, 4.798112299991772, 5.508472900022753, 4.618334300001152, 4.961700199986808, 3.9213540999917313, 4.246816899976693, 4.475631300010718, 4.039824899984524, 3.1110611999756657, 2.8381284000352025, 3.2180843999958597, 2.1774384999880567, 7.141964700014796, 5.147294899972621, 4.918385100027081, 5.7554449000163, 2.3179413999896497, 4.191549799987115, 5.21178620000137, 1.9668372999876738, 1.6439324000384659, 1.733940900012385, 2.7342264999751933, 1.8784293999779038, 1.6415550999809057, 1.4217558999662288, 2.981034000054933, 1.4319796999916434, 6.1719016000279225, 4.1249030999606475, 1.8214646000415087, 3.0171026999596506, 4.815112800046336, 3.41066980001051, 2.1653571000206284, 5.1953427999978885, 1.6192680000094697, 3.6643499999772757, 3.4844927999656647, 3.7840629999991506, 2.7103242999874055, 4.174938900046982]",nahiiiii,1,2023-11-09_01h15.50.436,ISB,2022.2.5,60.08033944
0.7,1000,exp,5,4,64,5,564.8364516,565.8365948,565.8365948,565.8365948,space,0.6326663,567.1866473,567.6654875,567.6654875,567.6654875,567.6654875,700,65,"[6.817182699975092, 3.143667899945285, 4.750760700029787, 3.577181999979075, 3.723223099950701, 3.3756445999606512, 2.45114520000061, 2.0237693000235595, 2.9152677999809384, 2.8180047999485396, 5.929074199986644, 3.051912299997639, 3.201943600026425, 3.5581099999835715, 1.8640120000345632, 1.6615209000301547, 7.728283000004012, 2.2842576000257395, 2.6755254000308923, 8.385536200017668, 3.863071400031913, 2.8043928999686614, 4.7981068000080995, 5.50846670003375, 4.618328400014434, 4.961693499993999, 3.9213504000217654, 4.246808199968655, 4.475626000028569, 4.039820200006943, 3.1110553999897093, 2.838122100045439, 3.218078800011426, 2.1774313999922015, 7.1419427000219, 5.147285400016699, 4.918379199982155, 5.755438700027298, 2.3179365000105463, 4.191544999950565, 5.211781300022267, 1.9668319000047632, 1.6439260999904945, 1.7339359000325203, 2.7342210999922827, 1.8784216999774799, 1.6415514000109397, 1.4217477000202052, 2.981028900016099, 1.4319747999543324, 6.171894300030544, 4.124897799978498, 1.8214599000057206, 3.0170968999736942, 4.815107200003695, 3.4106649000314064, 2.1653519999817945, 5.195337400014978, 1.6192613000166602, 3.6643450999981724, 3.48448709998047, 3.784057100012433, 2.7103176999953575, 4.174932199995965, 2.41798619995825]","[6.817192699993029, 3.143675400002394, 4.750766200013459, 3.577191499993205, 3.7232301999465562, 3.3756495999987237, 2.4511495000333525, 2.0237775000277907, 2.915276499988977, 2.818012599949725, 5.929079100023955, 3.051919599995017, 3.201949500013143, 3.558115799969528, 1.8640175000182353, 1.6615275000222027, 7.728288699989207, 2.284263400011696, 2.6755309000145644, 8.385540499992203, 3.8630920000141487, 2.8043980000074953, 4.798112299991772, 5.508472900022753, 4.618334300001152, 4.961700199986808, 3.9213540999917313, 4.246816899976693, 4.475631300010718, 4.039824899984524, 3.1110611999756657, 2.8381284000352025, 3.2180843999958597, 2.1774384999880567, 7.141964700014796, 5.147294899972621, 4.918385100027081, 5.7554449000163, 2.3179413999896497, 4.191549799987115, 5.21178620000137, 1.9668372999876738, 1.6439324000384659, 1.733940900012385, 2.7342264999751933, 1.8784293999779038, 1.6415550999809057, 1.4217558999662288, 2.981034000054933, 1.4319796999916434, 6.1719016000279225, 4.1249030999606475, 1.8214646000415087, 3.0171026999596506, 4.815112800046336, 3.41066980001051, 2.1653571000206284, 5.1953427999978885, 1.6192680000094697, 3.6643499999772757, 3.4844927999656647, 3.7840629999991506, 2.7103242999874055, 4.174938900046982, 2.417992000002414]",nahiiiii,1,2023-11-09_01h15.50.436,ISB,2022.2.5,60.08033944
